
time;gFx;gFy;gFz;ax;ay;az;wx;wy;wz;
0,104434;0,0750;1,0006;0,0666;0,0000;0,0000;0,0000;0,0000;0,0000;0,0000;
0,131546;0,0750;1,0006;0,0666;0,0140;0,1460;0,0010;0,0000;0,0000;0,0000;
0,151574;0,0877;1,0113;0,0952;0,0140;0,1460;0,0010;0,0000;0,0000;0,0000;
0,152843;0,0877;1,0113;0,0952;0,0090;0,1740;0,0160;0,0000;0,0000;0,0000;
0,170550;0,0877;1,0113;0,0952;0,0020;0,0680;0,0040;0,0000;0,0000;0,0000;
0,222604;0,0877;1,0113;0,0952;0,0020;0,0680;0,0040;0,1359;-0,1145;-0,0317;
0,223773;0,0877;1,0113;0,0952;0,0070;0,0860;0,0010;0,1359;-0,1145;-0,0317;
0,224272;0,0908;1,0043;0,0446;0,0070;0,0860;0,0010;0,1359;-0,1145;-0,0317;
0,224699;0,0908;1,0043;0,0446;0,0070;0,0750;0,0240;0,1359;-0,1145;-0,0317;
0,233881;0,0908;1,0043;0,0446;0,1270;0,0320;0,0380;0,1359;-0,1145;-0,0317;
0,252072;0,0908;1,0043;0,0446;0,1270;0,0320;0,0380;0,1619;0,0635;-0,0797;
0,253061;0,0908;1,0043;0,0446;0,0340;-0,0510;-0,1500;0,1619;0,0635;-0,0797;
0,272034;0,0548;0,9950;0,0121;0,0340;-0,0510;-0,1500;0,1619;0,0635;-0,0797;
0,272859;0,0548;0,9950;0,0121;-0,3030;-0,0260;-0,2210;0,1619;0,0635;-0,0797;
0,302244;0,0548;0,9950;0,0121;-0,0160;0,0660;0,1270;0,1619;0,0635;-0,0797;
0,318791;0,0548;0,9950;0,0121;-0,0160;0,0660;0,1270;0,1299;0,0825;-0,1087;
0,320594;0,0548;0,9950;0,0121;0,0200;0,0630;0,0220;0,1299;0,0825;-0,1087;
0,336937;0,0558;1,0008;0,0002;0,0200;0,0630;0,0220;0,1299;0,0825;-0,1087;
0,337741;0,0558;1,0008;0,0002;-0,3010;0,0430;-0,3620;0,1299;0,0825;-0,1087;
0,354796;0,0558;1,0008;0,0002;-0,5430;0,0230;-0,4110;0,1299;0,0825;-0,1087;
0,385379;0,0558;1,0008;0,0002;-0,5430;0,0230;-0,4110;0,0309;-0,0415;-0,0207;
0,386973;0,0558;1,0008;0,0002;-0,4210;0,1280;-0,2590;0,0309;-0,0415;-0,0207;
0,401638;0,0541;1,0101;-0,0032;-0,4210;0,1280;-0,2590;0,0309;-0,0415;-0,0207;
0,402888;0,0541;1,0101;-0,0032;-0,2110;0,1120;-0,2850;0,0309;-0,0415;-0,0207;
0,418377;0,0541;1,0101;-0,0032;-0,1460;0,0970;-0,2410;0,0309;-0,0415;-0,0207;
0,435966;0,0541;1,0101;-0,0032;-0,1240;0,0830;0,0260;0,0309;-0,0415;-0,0207;
0,456059;0,0633;1,0082;0,0314;-0,1240;0,0830;0,0260;0,0309;-0,0415;-0,0207;
0,457685;0,0633;1,0082;0,0314;-0,1240;0,0830;0,0260;-0,0061;-0,0525;0,0073;
0,459182;0,0633;1,0082;0,0314;-0,0910;0,0960;0,0500;-0,0061;-0,0525;0,0073;
0,488165;0,0633;1,0082;0,0314;-0,0090;0,0550;-0,2300;-0,0061;-0,0525;0,0073;
0,502036;0,0633;1,0082;0,0314;-0,0840;0,0680;-0,3100;-0,0061;-0,0525;0,0073;
0,527188;0,0536;1,0136;0,0267;-0,0840;0,0680;-0,3100;-0,0061;-0,0525;0,0073;
0,528458;0,0536;1,0136;0,0267;-0,0840;0,0680;-0,3100;-0,0731;-0,0525;0,0043;
0,529513;0,0536;1,0136;0,0267;-0,1660;0,1490;0,0270;-0,0731;-0,0525;0,0043;
0,536765;0,0536;1,0136;0,0267;-0,1310;0,1220;0,3360;-0,0731;-0,0525;0,0043;
0,567157;0,0536;1,0136;0,0267;0,0260;0,0130;0,0620;-0,0731;-0,0525;0,0043;
0,585306;0,0718;0,9994;-0,0100;0,0260;0,0130;0,0620;-0,0731;-0,0525;0,0043;
0,586441;0,0718;0,9994;-0,0100;0,0260;0,0130;0,0620;-0,0401;0,0275;0,0083;
0,587961;0,0718;0,9994;-0,0100;0,0100;0,0130;-0,3380;-0,0401;0,0275;0,0083;
0,602757;0,0718;0,9994;-0,0100;-0,1040;0,0810;-0,0230;-0,0401;0,0275;0,0083;
0,618881;0,0718;0,9994;-0,0100;-0,1090;0,1080;0,2500;-0,0401;0,0275;0,0083;
0,639378;0,0626;1,0052;0,0349;-0,1090;0,1080;0,2500;-0,0401;0,0275;0,0083;
0,640073;0,0626;1,0052;0,0349;-0,1090;0,1080;0,2500;0,0089;-0,0135;0,0043;
0,640784;0,0626;1,0052;0,0349;-0,0510;0,0670;0,0560;0,0089;-0,0135;0,0043;
0,667565;0,0626;1,0052;0,0349;-0,0090;0,0120;-0,0840;0,0089;-0,0135;0,0043;
0,684501;0,0626;1,0052;0,0349;-0,0450;0,0250;-0,1320;0,0089;-0,0135;0,0043;
0,706274;0,0546;1,0026;0,0102;-0,0450;0,0250;-0,1320;0,0089;-0,0135;0,0043;
0,707468;0,0546;1,0026;0,0102;-0,1190;0,0380;-0,1680;0,0089;-0,0135;0,0043;
0,719472;0,0546;1,0026;0,0102;-0,1190;0,0380;-0,1680;-0,0480;0,0005;0,0153;
0,720746;0,0546;1,0026;0,0102;-0,0240;0,0390;-0,0390;-0,0480;0,0005;0,0153;
0,796477;0,0546;1,0026;0,0102;0,0000;0,0800;-0,0580;-0,0480;0,0005;0,0153;
0,798423;0,0696;1,0162;0,0427;0,0000;0,0800;-0,0580;-0,0480;0,0005;0,0153;
0,800289;0,0696;1,0162;0,0427;0,0230;0,1760;0,1150;-0,0480;0,0005;0,0153;
0,801282;0,0696;1,0162;0,0427;0,0230;0,1760;0,1150;-0,0130;-0,0895;-0,0127;
0,803202;0,0696;1,0162;0,0427;0,1390;0,1900;0,1940;-0,0130;-0,0895;-0,0127;
0,804091;0,0696;1,0162;0,0427;0,2250;0,1230;-0,0740;-0,0130;-0,0895;-0,0127;
0,826048;0,0715;1,0062;0,0039;0,2250;0,1230;-0,0740;-0,0130;-0,0895;-0,0127;
0,827092;0,0715;1,0062;0,0039;0,0270;0,0680;-0,2670;-0,0130;-0,0895;-0,0127;
0,842408;0,0715;1,0062;0,0039;0,0270;0,0680;-0,2670;-0,0740;0,0635;-0,0137;
0,843518;0,0715;1,0062;0,0039;-0,1330;0,2030;-0,1230;-0,0740;0,0635;-0,0137;
0,874854;0,0715;1,0062;0,0039;0,0200;0,3260;0,3600;-0,0740;0,0635;-0,0137;
0,889784;0,0877;1,0248;0,0710;0,0200;0,3260;0,3600;-0,0740;0,0635;-0,0137;
0,891118;0,0877;1,0248;0,0710;0,2060;0,2590;0,3430;-0,0740;0,0635;-0,0137;
0,909341;0,0877;1,0248;0,0710;0,2060;0,2590;0,3430;0,0339;0,1665;-0,0567;
0,910804;0,0877;1,0248;0,0710;0,1780;0,1360;-0,2040;0,0339;0,1665;-0,0567;
0,924994;0,0877;1,0248;0,0710;0,1010;0,0520;-0,5570;0,0339;0,1665;-0,0567;
0,958921;0,0840;1,0194;-0,0271;0,1010;0,0520;-0,5570;0,0339;0,1665;-0,0567;
0,959735;0,0840;1,0194;-0,0271;0,1710;0,2010;-0,5220;0,0339;0,1665;-0,0567;
0,975238;0,0840;1,0194;-0,0271;0,2210;0,4050;-0,4350;0,0339;0,1665;-0,0567;
0,993639;0,0840;1,0194;-0,0271;0,2210;0,4050;-0,4350;-0,1910;-0,0825;-0,1257;
0,994386;0,0840;1,0194;-0,0271;-0,1770;0,5940;-0,3370;-0,1910;-0,0825;-0,1257;
1,011954;0,0394;1,0856;0,0385;-0,1770;0,5940;-0,3370;-0,1910;-0,0825;-0,1257;
1,012617;0,0394;1,0856;0,0385;-0,1920;0,8520;0,0660;-0,1910;-0,0825;-0,1257;
1,025660;0,0394;1,0856;0,0385;0,2350;1,0990;0,3390;-0,1910;-0,0825;-0,1257;
1,058775;0,0394;1,0856;0,0385;0,2350;1,0990;0,3390;-0,1020;-0,1395;-0,0457;
1,060065;0,0394;1,0856;0,0385;0,3480;1,4540;0,0070;-0,1020;-0,1395;-0,0457;
1,074699;0,1011;1,1731;0,0535;0,3480;1,4540;0,0070;-0,1020;-0,1395;-0,0457;
1,075961;0,1011;1,1731;0,0535;0,3900;1,7140;0,1220;-0,1020;-0,1395;-0,0457;
1,099745;0,1011;1,1731;0,0535;0,1480;1,7400;0,3510;-0,1020;-0,1395;-0,0457;
1,109910;0,1011;1,1731;0,0535;0,1480;1,7400;0,3510;-0,0290;-0,0465;-0,1437;
1,111481;0,1011;1,1731;0,0535;-0,5310;1,7390;0,2350;-0,0290;-0,0465;-0,1437;
1,138934;-0,0165;1,1702;0,1003;-0,5310;1,7390;0,2350;-0,0290;-0,0465;-0,1437;
1,140253;-0,0165;1,1702;0,1003;-0,6580;1,6690;0,5670;-0,0290;-0,0465;-0,1437;
1,158802;-0,0165;1,1702;0,1003;-0,4260;1,7910;0,5730;-0,0290;-0,0465;-0,1437;
1,174079;-0,0165;1,1702;0,1003;-0,4260;1,7910;0,5730;0,2250;-0,1794;-0,0606;
1,175505;-0,0165;1,1702;0,1003;-0,3980;1,5710;0,7520;0,2250;-0,1794;-0,0606;
1,191083;-0,0009;1,1364;0,1001;-0,3980;1,5710;0,7520;0,2250;-0,1794;-0,0606;
1,192381;-0,0009;1,1364;0,1001;-0,4040;1,3360;0,6010;0,2250;-0,1794;-0,0606;
1,208720;-0,0009;1,1364;0,1001;-0,8140;1,3580;0,0190;0,2250;-0,1794;-0,0606;
1,238065;-0,0009;1,1364;0,1001;-0,8780;1,3660;-0,3280;0,2250;-0,1794;-0,0606;
1,258314;-0,0379;1,1149;-0,0144;-0,8780;1,3660;-0,3280;0,2250;-0,1794;-0,0606;
1,259844;-0,0379;1,1149;-0,0144;-0,8780;1,3660;-0,3280;0,3650;-0,2954;0,0004;
1,261038;-0,0379;1,1149;-0,0144;-0,5810;1,1190;-0,2260;0,3650;-0,2954;0,0004;
1,274016;-0,0379;1,1149;-0,0144;-0,5700;1,0370;0,3750;0,3650;-0,2954;0,0004;
1,290260;-0,0379;1,1149;-0,0144;-0,5400;1,3080;0,8060;0,3650;-0,2954;0,0004;
1,309346;-0,0522;1,1357;0,0817;-0,5400;1,3080;0,8060;0,3650;-0,2954;0,0004;
1,310183;-0,0522;1,1357;0,0817;-0,5400;1,3080;0,8060;0,5770;-0,4454;-0,0136;
1,310729;-0,0522;1,1357;0,0817;-0,6140;1,3210;0,8420;0,5770;-0,4454;-0,0136;
1,342815;-0,0522;1,1357;0,0817;-0,4780;0,8320;0,3590;0,5770;-0,4454;-0,0136;
1,360873;-0,0522;1,1357;0,0817;-0,3970;0,5480;0,3070;0,5770;-0,4454;-0,0136;
1,377216;-0,0322;1,0502;0,0160;-0,3970;0,5480;0,3070;0,5770;-0,4454;-0,0136;
1,378428;-0,0322;1,0502;0,0160;-0,3970;0,5480;0,3070;0,5700;0,1366;0,0574;
1,379567;-0,0322;1,0502;0,0160;-0,3420;0,4820;0,4840;0,5700;0,1366;0,0574;
1,392278;-0,0322;1,0502;0,0160;-0,1430;0,4170;0,6110;0,5700;0,1366;0,0574;
1,425277;-0,0322;1,0502;0,0160;-0,4640;0,1380;0,1500;0,5700;0,1366;0,0574;
1,441463;-0,0894;0,9922;-0,1178;-0,4640;0,1380;0,1500;0,5700;0,1366;0,0574;
1,443027;-0,0894;0,9922;-0,1178;-0,4640;0,1380;0,1500;0,5650;0,1196;-0,0016;
1,444033;-0,0894;0,9922;-0,1178;-0,8410;-0,0710;-0,4600;0,5650;0,1196;-0,0016;
1,459757;-0,0894;0,9922;-0,1178;-0,7550;-0,2550;-0,1220;0,5650;0,1196;-0,0016;
1,477977;-0,0894;0,9922;-0,1178;-0,4750;-0,4530;0,3370;0,5650;0,1196;-0,0016;
1,511442;-0,0557;0,9138;-0,0782;-0,4750;-0,4530;0,3370;0,5650;0,1196;-0,0016;
1,512947;-0,0557;0,9138;-0,0782;-0,5680;-0,8130;0,1740;0,5650;0,1196;-0,0016;
1,514224;-0,0557;0,9138;-0,0782;-0,5680;-0,8130;0,1740;0,4060;0,3536;0,1004;
1,515358;-0,0557;0,9138;-0,0782;-0,7020;-0,9820;-0,2110;0,4060;0,3536;0,1004;
1,535353;-0,0557;0,9138;-0,0782;-0,7190;-0,9740;-0,1210;0,4060;0,3536;0,1004;
1,557999;-0,0823;0,8877;-0,1419;-0,7190;-0,9740;-0,1210;0,4060;0,3536;0,1004;
1,559720;-0,0823;0,8877;-0,1419;-0,8830;-1,0470;-0,2310;0,4060;0,3536;0,1004;
1,574404;-0,0823;0,8877;-0,1419;-0,8830;-1,0470;-0,2310;0,2500;0,4056;0,0214;
1,575206;-0,0823;0,8877;-0,1419;-0,5550;-1,0820;-0,1140;0,2500;0,4056;0,0214;
1,610539;-0,0823;0,8877;-0,1419;-0,4420;-1,0510;0,3650;0,2500;0,4056;0,0214;
1,625894;-0,0603;0,8750;-0,0569;-0,4420;-1,0510;0,3650;0,2500;0,4056;0,0214;
1,627147;-0,0603;0,8750;-0,0569;-0,5950;-1,1580;0,7140;0,2500;0,4056;0,0214;
1,641909;-0,0603;0,8750;-0,0569;-0,5950;-1,1580;0,7140;0,4380;0,4875;-0,0626;
1,643402;-0,0603;0,8750;-0,0569;-0,5690;-1,2320;0,5000;0,4380;0,4875;-0,0626;
1,657380;-0,0603;0,8750;-0,0569;-0,4340;-1,1750;-0,2060;0,4380;0,4875;-0,0626;
1,676210;-0,0456;0,8845;-0,1669;-0,4340;-1,1750;-0,2060;0,4380;0,4875;-0,0626;
1,677464;-0,0456;0,8845;-0,1669;-0,3270;-1,0260;-0,1260;0,4380;0,4875;-0,0626;
1,707444;-0,0456;0,8845;-0,1669;-0,3270;-1,0260;-0,1260;0,2480;0,8245;-0,1856;
1,708768;-0,0456;0,8845;-0,1669;0,1050;-1,0170;0,1210;0,2480;0,8245;-0,1856;
1,723432;-0,0456;0,8845;-0,1669;0,0050;-0,9400;0,0950;0,2480;0,8245;-0,1856;
1,739550;-0,0452;0,8920;-0,1330;0,0050;-0,9400;0,0950;0,2480;0,8245;-0,1856;
1,740746;-0,0452;0,8920;-0,1330;-0,2550;-0,9330;0,3600;0,2480;0,8245;-0,1856;
1,758822;-0,0452;0,8920;-0,1330;-0,1490;-0,9590;0,6100;0,2480;0,8245;-0,1856;
1,793198;-0,0452;0,8920;-0,1330;-0,1490;-0,9590;0,6100;0,2110;1,1965;-0,2866;
1,794898;-0,0452;0,8920;-0,1330;-0,0090;-0,9710;0,7240;0,2110;1,1965;-0,2866;
1,796184;-0,0137;0,9020;-0,0980;-0,0090;-0,9710;0,7240;0,2110;1,1965;-0,2866;
1,797054;-0,0137;0,9020;-0,0980;0,1200;-0,8180;0,7300;0,2110;1,1965;-0,2866;
1,825655;-0,0137;0,9020;-0,0980;0,3130;-0,8580;0,2650;0,2110;1,1965;-0,2866;
1,842352;-0,0137;0,9020;-0,0980;0,3130;-0,8580;0,2650;0,3470;1,2715;-0,4306;
1,844072;-0,0137;0,9020;-0,0980;0,2120;-0,9260;-0,5760;0,3470;1,2715;-0,4306;
1,858804;-0,0386;0,8845;-0,2388;0,2120;-0,9260;-0,5760;0,3470;1,2715;-0,4306;
1,860317;-0,0386;0,8845;-0,2388;-0,0610;-0,9360;-0,3440;0,3470;1,2715;-0,4306;
1,876138;-0,0386;0,8845;-0,2388;-0,0490;-0,9480;0,2860;0,3470;1,2715;-0,4306;
1,909711;-0,0386;0,8845;-0,2388;-0,0490;-0,9480;0,2860;0,0270;1,1455;-0,2736;
1,911194;-0,0386;0,8845;-0,2388;0,2400;-0,8570;0,5650;0,0270;1,1455;-0,2736;
1,925464;0,0189;0,8955;-0,1640;0,2400;-0,8570;0,5650;0,0270;1,1455;-0,2736;
1,927483;0,0189;0,8955;-0,1640;0,4700;-0,8300;0,3790;0,0270;1,1455;-0,2736;
1,941618;0,0189;0,8955;-0,1640;0,4190;-0,9860;-0,0720;0,0270;1,1455;-0,2736;
1,959658;0,0189;0,8955;-0,1640;0,4190;-0,9860;-0,0720;-0,0840;1,0175;-0,3156;
1,961070;0,0189;0,8955;-0,1640;0,4520;-1,0270;0,1200;-0,0840;1,0175;-0,3156;
2,002240;0,0480;0,8957;-0,1349;0,4520;-1,0270;0,1200;-0,0840;1,0175;-0,3156;
2,002966;0,0480;0,8957;-0,1349;0,6820;-0,8340;0,6400;-0,0840;1,0175;-0,3156;
2,003387;0,0480;0,8957;-0,1349;0,6880;-0,8990;0,8490;-0,0840;1,0175;-0,3156;
2,021862;0,0480;0,8957;-0,1349;0,3380;-1,1010;0,3450;-0,0840;1,0175;-0,3156;
2,042006;0,0252;0,8552;-0,2136;0,3380;-1,1010;0,3450;-0,0840;1,0175;-0,3156;
2,043612;0,0252;0,8552;-0,2136;0,3380;-1,1010;0,3450;0,0790;1,0655;-0,2176;
2,044791;0,0252;0,8552;-0,2136;0,3950;-1,2280;-0,1110;0,0790;1,0655;-0,2176;
2,061042;0,0252;0,8552;-0,2136;0,8620;-1,2620;-0,1540;0,0790;1,0655;-0,2176;
2,079838;0,0252;0,8552;-0,2136;0,9710;-1,4740;-0,1270;0,0790;1,0655;-0,2176;
2,103130;0,0657;0,7960;-0,2502;0,9710;-1,4740;-0,1270;0,0790;1,0655;-0,2176;
2,104304;0,0657;0,7960;-0,2502;0,9710;-1,4740;-0,1270;-0,1620;0,8675;-0,2166;
2,105266;0,0657;0,7960;-0,2502;0,5770;-1,7940;-0,3790;-0,1620;0,8675;-0,2166;
2,119867;0,0657;0,7960;-0,2502;0,7510;-1,6220;0,0520;-0,1620;0,8675;-0,2166;
2,143481;0,0657;0,7960;-0,2502;1,1850;-1,4990;0,5380;-0,1620;0,8675;-0,2166;
2,161462;0,1530;0,8034;-0,2221;1,1850;-1,4990;0,5380;-0,1620;0,8675;-0,2166;
2,162976;0,1530;0,8034;-0,2221;1,1850;-1,4990;0,5380;-0,2730;0,3046;-0,1076;
2,164140;0,1530;0,8034;-0,2221;1,1190;-1,7280;-0,2030;-0,2730;0,3046;-0,1076;
2,183060;0,1530;0,8034;-0,2221;0,9730;-1,9360;-1,0370;-0,2730;0,3046;-0,1076;
2,202282;0,1530;0,8034;-0,2221;0,9680;-1,7620;-0,8100;-0,2730;0,3046;-0,1076;
2,224978;0,1570;0,8172;-0,1722;0,9680;-1,7620;-0,8100;-0,2730;0,3046;-0,1076;
2,225853;0,1570;0,8172;-0,1722;0,9680;-1,7620;-0,8100;-0,8690;0,0856;-0,0606;
2,226471;0,1570;0,8172;-0,1722;1,0030;-1,6350;0,0230;-0,8690;0,0856;-0,0606;
2,242481;0,1570;0,8172;-0,1722;1,1130;-1,6230;0,5580;-0,8690;0,0856;-0,0606;
2,265786;0,1570;0,8172;-0,1722;0,9010;-1,3220;0,5350;-0,8690;0,0856;-0,0606;
2,283692;0,1703;0,8762;-0,0161;0,9010;-1,3220;0,5350;-0,8690;0,0856;-0,0606;
2,284604;0,1703;0,8762;-0,0161;1,1250;-1,1390;1,0290;-0,8690;0,0856;-0,0606;
2,306285;0,1703;0,8762;-0,0161;1,1250;-1,1390;1,0290;-0,8060;0,3326;-0,0316;
2,306975;0,1703;0,8762;-0,0161;1,1570;-1,0890;0,8730;-0,8060;0,3326;-0,0316;
2,324605;0,1703;0,8762;-0,0161;0,5440;-1,1310;0,0760;-0,8060;0,3326;-0,0316;
2,346806;0,0713;0,8982;-0,0972;0,5440;-1,1310;0,0760;-0,8060;0,3326;-0,0316;
2,347984;0,0713;0,8982;-0,0972;0,1780;-0,9660;-0,2050;-0,8060;0,3326;-0,0316;
2,365364;0,0713;0,8982;-0,0972;0,1780;-0,9660;-0,2050;-0,8450;-0,2144;0,1164;
2,366293;0,0713;0,8982;-0,0972;0,8380;-0,6220;-0,0580;-0,8450;-0,2144;0,1164;
2,386718;0,0713;0,8982;-0,0972;1,5350;-0,6430;0,7680;-0,8450;-0,2144;0,1164;
2,404766;0,2414;0,9439;0,1145;1,5350;-0,6430;0,7680;-0,8450;-0,2144;0,1164;
2,406680;0,2414;0,9439;0,1145;1,7960;-0,5390;1,3750;-0,8450;-0,2144;0,1164;
2,426993;0,2414;0,9439;0,1145;1,7960;-0,5390;1,3750;-0,6310;-0,1094;-0,1626;
2,428149;0,2414;0,9439;0,1145;1,5390;-0,3790;0,9230;-0,6310;-0,1094;-0,1626;
2,446312;0,2414;0,9439;0,1145;1,4570;-0,1980;-0,0550;-0,6310;-0,1094;-0,1626;
2,468493;0,1644;0,9781;0,0178;1,4570;-0,1980;-0,0550;-0,6310;-0,1094;-0,1626;
2,469391;0,1644;0,9781;0,0178;0,9500;-0,2070;-0,0350;-0,6310;-0,1094;-0,1626;
2,486353;0,1644;0,9781;0,0178;0,9500;-0,2070;-0,0350;-0,7690;0,1516;-0,0236;
2,487193;0,1644;0,9781;0,0178;-0,3790;-0,3120;0,9690;-0,7690;0,1516;-0,0236;
2,507745;0,1644;0,9781;0,0178;-0,5850;-0,2780;1,6000;-0,7690;0,1516;-0,0236;
2,527002;0,1786;0,9673;0,1390;-0,5850;-0,2780;1,6000;-0,7690;0,1516;-0,0236;
2,528005;0,1786;0,9673;0,1390;1,0660;-0,2840;0,7450;-0,7690;0,1516;-0,0236;
2,549260;0,1786;0,9673;0,1390;0,9540;-0,0040;-0,1420;-0,7690;0,1516;-0,0236;
2,568400;0,1786;0,9673;0,1390;0,9540;-0,0040;-0,1420;-0,6630;-0,4654;0,0064;
2,569481;0,1786;0,9673;0,1390;-0,1190;0,1310;0,2490;-0,6630;-0,4654;0,0064;
2,589519;0,1346;0,9740;0,2643;-0,1190;0,1310;0,2490;-0,6630;-0,4654;0,0064;
2,590889;0,1346;0,9740;0,2643;0,5590;-0,1960;1,6240;-0,6630;-0,4654;0,0064;
2,608348;0,1346;0,9740;0,2643;1,8360;-0,2670;0,8030;-0,6630;-0,4654;0,0064;
2,631361;0,1346;0,9740;0,2643;1,8360;-0,2670;0,8030;-0,4620;-0,4564;0,0444;
2,632430;0,1346;0,9740;0,2643;0,9050;-0,0650;-0,4420;-0,4620;-0,4564;0,0444;
2,648050;0,1202;0,9676;0,0869;0,9050;-0,0650;-0,4420;-0,4620;-0,4564;0,0444;
2,649429;0,1202;0,9676;0,0869;0,3030;-0,2110;-0,3800;-0,4620;-0,4564;0,0444;
2,671726;0,1202;0,9676;0,0869;1,4000;-0,1230;0,8440;-0,4620;-0,4564;0,0444;
2,689656;0,1202;0,9676;0,0869;1,4000;-0,1230;0,8440;-0,4230;-0,3224;-0,0186;
2,690522;0,1202;0,9676;0,0869;1,0240;0,5020;1,2350;-0,4230;-0,3224;-0,0186;
2,711137;0,0548;1,0570;0,1609;1,0240;0,5020;1,2350;-0,4230;-0,3224;-0,0186;
2,712482;0,0548;1,0570;0,1609;-0,3790;0,7020;0,0680;-0,4230;-0,3224;-0,0186;
2,731197;0,0548;1,0570;0,1609;-0,8800;0,3230;-0,2120;-0,4230;-0,3224;-0,0186;
2,752125;0,0548;1,0570;0,1609;-0,8800;0,3230;-0,2120;-0,4010;-0,7114;0,3384;
2,752923;0,0548;1,0570;0,1609;0,2390;-0,2820;1,2260;-0,4010;-0,7114;0,3384;
2,770675;0,1984;0,9283;0,3823;0,2390;-0,2820;1,2260;-0,4010;-0,7114;0,3384;
2,772010;0,1984;0,9283;0,3823;0,8160;-0,5110;2,0600;-0,4010;-0,7114;0,3384;
2,792624;0,1984;0,9283;0,3823;1,5790;-0,2310;0,7730;-0,4010;-0,7114;0,3384;
2,812346;0,1984;0,9283;0,3823;1,2830;0,3380;-1,2300;-0,4010;-0,7114;0,3384;
2,833360;0,1712;1,0462;0,0928;1,2830;0,3380;-1,2300;-0,4010;-0,7114;0,3384;
2,834094;0,1712;1,0462;0,0928;1,2830;0,3380;-1,2300;-0,5750;-0,3514;-0,0336;
2,834826;0,1712;1,0462;0,0928;0,4750;0,6910;-0,9740;-0,5750;-0,3514;-0,0336;
2,851698;0,1712;1,0462;0,0928;-0,3910;0,5370;1,9760;-0,5750;-0,3514;-0,0336;
2,874751;0,1712;1,0462;0,0928;0,4400;0,9470;4,0860;-0,5750;-0,3514;-0,0336;
2,893603;0,4056;1,2037;0,4039;0,4400;0,9470;4,0860;-0,5750;-0,3514;-0,0336;
2,894837;0,4056;1,2037;0,4039;0,4400;0,9470;4,0860;-0,1110;-0,1974;0,3404;
2,895811;0,4056;1,2037;0,4039;2,5370;2,3220;1,8500;-0,1110;-0,1974;0,3404;
2,914355;0,4056;1,2037;0,4039;2,7970;2,3460;-0,4490;-0,1110;-0,1974;0,3404;
2,934036;0,4056;1,2037;0,4039;0,9500;1,7080;-0,1040;-0,1110;-0,1974;0,3404;
2,955329;0,1991;1,1848;0,2284;0,9500;1,7080;-0,1040;-0,1110;-0,1974;0,3404;
2,956627;0,1991;1,1848;0,2284;0,9500;1,7080;-0,1040;-0,3350;-0,2114;-0,2326;
2,957214;0,1991;1,1848;0,2284;0,5600;2,1670;-0,0440;-0,3350;-0,2114;-0,2326;
2,974524;0,1991;1,1848;0,2284;0,0830;2,7200;0,0560;-0,3350;-0,2114;-0,2326;
2,996287;0,1991;1,1848;0,2284;0,1660;2,7140;1,3180;-0,3350;-0,2114;-0,2326;
3,015213;0,2590;1,1965;0,4491;0,1660;2,7140;1,3180;-0,3350;-0,2114;-0,2326;
3,016069;0,2590;1,1965;0,4491;0,1660;2,7140;1,3180;0,0090;-0,4414;-0,2126;
3,016903;0,2590;1,1965;0,4491;1,1820;2,2910;2,0390;0,0090;-0,4414;-0,2126;
3,036687;0,2590;1,1965;0,4491;1,2760;1,6490;1,6270;0,0090;-0,4414;-0,2126;
3,056005;0,2590;1,1965;0,4491;0,4910;1,2430;0,7300;0,0090;-0,4414;-0,2126;
3,077042;0,1082;1,0672;0,2538;0,4910;1,2430;0,7300;0,0090;-0,4414;-0,2126;
3,077864;0,1082;1,0672;0,2538;-0,1420;0,9560;0,3140;0,0090;-0,4414;-0,2126;
3,096821;0,1082;1,0672;0,2538;-0,1420;0,9560;0,3140;0,3370;-0,9524;-0,4626;
3,099049;0,1082;1,0672;0,2538;-0,5110;1,0700;-0,1670;0,3370;-0,9524;-0,4626;
3,116926;0,1082;1,0672;0,2538;-0,5730;1,1810;-0,0440;0,3370;-0,9524;-0,4626;
3,137571;0,1011;1,0910;0,2676;-0,5730;1,1810;-0,0440;0,3370;-0,9524;-0,4626;
3,138813;0,1011;1,0910;0,2676;-0,1310;1,1580;0,6030;0,3370;-0,9524;-0,4626;
3,157724;0,1011;1,0910;0,2676;-0,1310;1,1580;0,6030;0,0910;-0,7974;-0,3076;
3,158505;0,1011;1,0910;0,2676;-0,4040;1,0250;0,7360;0,0910;-0,7974;-0,3076;
3,177030;0,1011;1,0910;0,2676;-0,7330;0,8870;1,1750;0,0910;-0,7974;-0,3076;
3,199333;-0,0114;1,0612;0,3037;-0,7330;0,8870;1,1750;0,0910;-0,7974;-0,3076;
3,200823;-0,0114;1,0612;0,3037;-1,1690;0,8150;1,1460;0,0910;-0,7974;-0,3076;
3,217751;-0,0114;1,0612;0,3037;-1,1690;0,8150;1,1460;0,3920;-1,1094;-0,0366;
3,218866;-0,0114;1,0612;0,3037;-0,7890;0,7860;0,7690;0,3920;-1,1094;-0,0366;
3,240060;-0,0114;1,0612;0,3037;0,2150;0,9400;0,5960;0,3920;-1,1094;-0,0366;
3,259310;0,0923;1,0719;0,2320;0,2150;0,9400;0,5960;0,3920;-1,1094;-0,0366;
3,260368;0,0923;1,0719;0,2320;-0,1970;0,8870;0,6670;0,3920;-1,1094;-0,0366;
3,280105;0,0923;1,0719;0,2320;-0,1970;0,8870;0,6670;0,4190;-0,8284;-0,1176;
3,280934;0,0923;1,0719;0,2320;-0,9700;0,6800;0,9010;0,4190;-0,8284;-0,1176;
3,299901;0,0923;1,0719;0,2320;-1,2720;0,5670;0,6890;0,4190;-0,8284;-0,1176;
3,321041;0,0138;1,0565;0,2008;-1,2720;0,5670;0,6890;0,4190;-0,8284;-0,1176;
3,321590;0,0138;1,0565;0,2008;-0,7860;0,6890;0,5510;0,4190;-0,8284;-0,1176;
3,339598;0,0138;1,0565;0,2008;-0,5770;0,7570;0,3010;0,4190;-0,8284;-0,1176;
3,361867;0,0138;1,0565;0,2008;-0,5770;0,7570;0,3010;0,3960;-0,5244;0,1434;
3,363121;0,0138;1,0565;0,2008;-0,5840;0,6910;0,0080;0,3960;-0,5244;0,1434;
3,380013;0,0355;1,0497;0,1311;-0,5840;0,6910;0,0080;0,3960;-0,5244;0,1434;
3,381433;0,0355;1,0497;0,1311;-0,5420;0,5870;0,1040;0,3960;-0,5244;0,1434;
3,402513;0,0355;1,0497;0,1311;-0,7730;0,6880;0,1070;0,3960;-0,5244;0,1434;
3,422207;0,0355;1,0497;0,1311;-0,7730;0,6880;0,1070;0,1880;-0,4974;0,1254;
3,423886;0,0355;1,0497;0,1311;-0,5190;0,8590;-0,0030;0,1880;-0,4974;0,1254;
3,441864;0,0282;1,1071;0,0610;-0,5190;0,8590;-0,0030;0,1880;-0,4974;0,1254;
3,442714;0,0282;1,1071;0,0610;-0,5530;1,1220;-0,4290;0,1880;-0,4974;0,1254;
3,463200;0,0282;1,1071;0,0610;-1,0950;1,2920;-0,0850;0,1880;-0,4974;0,1254;
3,483741;0,0282;1,1071;0,0610;-1,0950;1,2920;-0,0850;-0,0830;-0,4094;0,0014;
3,484496;0,0282;1,1071;0,0610;-1,0510;1,3280;0,0710;-0,0830;-0,4094;0,0014;
3,503874;-0,0029;1,1408;0,0864;-1,0510;1,3280;0,0710;-0,0830;-0,4094;0,0014;
3,504730;-0,0029;1,1408;0,0864;-0,6670;1,4330;-0,1470;-0,0830;-0,4094;0,0014;
3,524393;-0,0029;1,1408;0,0864;-0,6120;1,5110;0,1570;-0,0830;-0,4094;0,0014;
3,543676;-0,0029;1,1408;0,0864;-0,6120;1,5110;0,1570;0,0260;-0,6304;-0,1006;
3,544454;-0,0029;1,1408;0,0864;-0,7840;1,3320;0,4870;0,0260;-0,6304;-0,1006;
3,565350;-0,0178;1,1128;0,1341;-0,7840;1,3320;0,4870;0,0260;-0,6304;-0,1006;
3,566840;-0,0178;1,1128;0,1341;-0,6380;1,1530;0,2980;0,0260;-0,6304;-0,1006;
3,585176;-0,0178;1,1128;0,1341;-0,5560;0,9770;0,5110;0,0260;-0,6304;-0,1006;
3,606114;-0,0178;1,1128;0,1341;-0,4890;0,9280;0,9620;0,0260;-0,6304;-0,1006;
3,625086;-0,0307;1,0521;0,2259;-0,4890;0,9280;0,9620;0,0260;-0,6304;-0,1006;
3,625982;-0,0307;1,0521;0,2259;-0,4890;0,9280;0,9620;0,0650;-0,3454;-0,1656;
3,626391;-0,0307;1,0521;0,2259;-0,5690;0,5760;1,0440;0,0650;-0,3454;-0,1656;
3,645735;-0,0307;1,0521;0,2259;-0,5400;0,0160;0,6630;0,0650;-0,3454;-0,1656;
3,666275;-0,0307;1,0521;0,2259;-0,3060;-0,3110;0,5250;0,0650;-0,3454;-0,1656;
3,686188;-0,0356;0,9476;0,1928;-0,3060;-0,3110;0,5250;0,0650;-0,3454;-0,1656;
3,687121;-0,0356;0,9476;0,1928;-0,3060;-0,3110;0,5250;0,1880;0,1376;-0,1516;
3,687772;-0,0356;0,9476;0,1928;-0,4510;-0,4650;0,7550;0,1880;0,1376;-0,1516;
3,705725;-0,0356;0,9476;0,1928;-0,4530;-0,4590;0,8850;0,1880;0,1376;-0,1516;
3,727335;-0,0356;0,9476;0,1928;-0,4330;-0,9040;0,8380;0,1880;0,1376;-0,1516;
3,747325;-0,0305;0,8630;0,1260;-0,4330;-0,9040;0,8380;0,1880;0,1376;-0,1516;
3,748712;-0,0305;0,8630;0,1260;-0,4330;-0,9040;0,8380;0,4610;-0,0984;-0,1256;
3,749395;-0,0305;0,8630;0,1260;-0,3290;-1,3220;0,3450;0,4610;-0,0984;-0,1256;
3,767858;-0,0305;0,8630;0,1260;-0,4070;-1,5170;-1,0940;0,4610;-0,0984;-0,1256;
3,787626;-0,0305;0,8630;0,1260;-0,2760;-1,4600;-1,8160;0,4610;-0,0984;-0,1256;
3,808887;0,0264;0,8473;0,1140;-0,2760;-1,4600;-1,8160;0,4610;-0,0984;-0,1256;
3,810399;0,0264;0,8473;0,1140;-0,2760;-1,4600;-1,8160;-0,1000;-0,5684;0,0114;
3,811305;0,0264;0,8473;0,1140;0,2130;-1,4700;0,2210;-0,1000;-0,5684;0,0114;
3,827067;0,0264;0,8473;0,1140;0,4560;-1,6610;1,6100;-0,1000;-0,5684;0,0114;
3,850093;0,0264;0,8473;0,1140;0,4050;-1,5520;1,3100;-0,1000;-0,5684;0,0114;
3,869937;0,0194;0,8407;0,1292;0,4050;-1,5520;1,3100;-0,1000;-0,5684;0,0114;
3,871072;0,0194;0,8407;0,1292;0,1640;-1,5360;0,3330;-0,1000;-0,5684;0,0114;
3,889386;0,0194;0,8407;0,1292;0,1640;-1,5360;0,3330;-0,1610;0,2696;-0,0206;
3,891031;0,0194;0,8407;0,1292;0,6360;-0,9890;0,3230;-0,1610;0,2696;-0,0206;
3,909526;0,0194;0,8407;0,1292;0,6930;-0,6920;1,4510;-0,1610;0,2696;-0,0206;
3,930926;0,0206;0,8759;0,2320;0,6930;-0,6920;1,4510;-0,1610;0,2696;-0,0206;
3,932167;0,0206;0,8759;0,2320;0,2240;-1,1880;1,4070;-0,1610;0,2696;-0,0206;
3,949060;0,0206;0,8759;0,2320;0,2240;-1,1880;1,4070;0,2900;0,2326;-0,1036;
3,950344;0,0206;0,8759;0,2320;0,2210;-1,3420;0,4000;0,2900;0,2326;-0,1036;
3,971409;0,0206;0,8759;0,2320;0,3000;-1,0460;-0,1560;0,2900;0,2326;-0,1036;
3,990951;0,0154;0,9121;0,0148;0,3000;-1,0460;-0,1560;0,2900;0,2326;-0,1036;
3,992056;0,0154;0,9121;0,0148;0,2510;-0,8440;-0,5910;0,2900;0,2326;-0,1036;
4,011248;0,0154;0,9121;0,0148;0,2510;-0,8440;-0,5910;0,0560;0,0506;-0,0396;
4,011938;0,0154;0,9121;0,0148;0,6140;-0,8440;-0,4150;0,0560;0,0506;-0,0396;
4,031022;0,0154;0,9121;0,0148;0,7590;-0,6810;0,1280;0,0560;0,0506;-0,0396;
4,053779;0,0562;0,9600;0,0791;0,7590;-0,6810;0,1280;0,0560;0,0506;-0,0396;
4,055180;0,0562;0,9600;0,0791;0,5500;-0,3830;0,0560;0,0560;0,0506;-0,0396;
4,070255;0,0562;0,9600;0,0791;0,5500;-0,3830;0,0560;0,0470;-0,0854;0,0124;
4,071235;0,0562;0,9600;0,0791;0,5060;-0,1520;-0,0820;0,0470;-0,0854;0,0124;
4,093567;0,0562;0,9600;0,0791;0,5970;0,0370;-0,0910;0,0470;-0,0854;0,0124;
4,111871;0,0635;1,0201;0,0593;0,5970;0,0370;-0,0910;0,0470;-0,0854;0,0124;
4,112608;0,0635;1,0201;0,0593;0,6060;0,2020;-0,1270;0,0470;-0,0854;0,0124;
4,133830;0,0635;1,0201;0,0593;0,5810;0,2440;0,0670;0,0470;-0,0854;0,0124;
4,152700;0,0635;1,0201;0,0593;0,5810;0,2440;0,0670;-0,0990;-0,0244;0,0234;
4,154242;0,0635;1,0201;0,0593;0,6620;0,2210;0,3370;-0,0990;-0,0244;0,0234;
4,174167;0,0820;1,0157;0,1074;0,6620;0,2210;0,3370;-0,0990;-0,0244;0,0234;
4,175816;0,0820;1,0157;0,1074;0,6380;0,1690;0,2580;-0,0990;-0,0244;0,0234;
4,193064;0,0820;1,0157;0,1074;0,5010;0,1690;-0,0640;-0,0990;-0,0244;0,0234;
4,216186;0,0820;1,0157;0,1074;0,5010;0,1690;-0,0640;-0,0290;0,0446;0,0194;
4,217530;0,0820;1,0157;0,1074;0,4240;0,2380;-0,1400;-0,0290;0,0446;0,0194;
4,233278;0,0718;1,0236;0,0798;0,4240;0,2380;-0,1400;-0,0290;0,0446;0,0194;
4,234986;0,0718;1,0236;0,0798;0,4180;0,2530;-0,0150;-0,0290;0,0446;0,0194;
4,256927;0,0718;1,0236;0,0798;0,4610;0,1880;0,1520;-0,0290;0,0446;0,0194;
4,274984;0,0718;1,0236;0,0798;0,4610;0,1880;0,1520;-0,0060;0,0046;0,0444;
4,275643;0,0718;1,0236;0,0798;0,3320;0,1360;0,2030;-0,0060;0,0046;0,0444;
4,297351;0,0720;1,0184;0,1040;0,3320;0,1360;0,2030;-0,0060;0,0046;0,0444;
4,299494;0,0720;1,0184;0,1040;0,3100;0,2060;0,1680;-0,0060;0,0046;0,0444;
4,315413;0,0720;1,0184;0,1040;0,3580;0,2480;-0,0010;-0,0060;0,0046;0,0444;
4,338060;0,0720;1,0184;0,1040;0,3580;0,2480;-0,0010;0,0080;-0,0114;0,0084;
4,339265;0,0720;1,0184;0,1040;0,2540;0,1400;-0,0340;0,0080;-0,0114;0,0084;
4,354533;0,0666;1,0043;0,0869;0,2540;0,1400;-0,0340;0,0080;-0,0114;0,0084;
4,355432;0,0666;1,0043;0,0869;0,1820;0,0720;0,0180;0,0080;-0,0114;0,0084;
4,379133;0,0666;1,0043;0,0869;0,2140;0,0610;0,1700;0,0080;-0,0114;0,0084;
4,396550;0,0666;1,0043;0,0869;0,2070;0,0480;0,0000;0,0080;-0,0114;0,0084;
4,419454;0,0662;1,0020;0,0759;0,2070;0,0480;0,0000;0,0080;-0,0114;0,0084;
4,421156;0,0662;1,0020;0,0759;0,2070;0,0480;0,0000;0,0270;-0,0634;0,0014;
4,422075;0,0662;1,0020;0,0759;0,1300;0,0470;-0,0830;0,0270;-0,0634;0,0014;
4,436179;0,0662;1,0020;0,0759;0,1480;0,0480;0,0460;0,0270;-0,0634;0,0014;
4,459847;0,0662;1,0020;0,0759;0,1140;-0,0040;0,0900;0,0270;-0,0634;0,0014;
4,477099;0,0669;0,9866;0,0866;0,1140;-0,0040;0,0900;0,0270;-0,0634;0,0014;
4,477772;0,0669;0,9866;0,0866;0,1140;-0,0040;0,0900;-0,0110;0,0356;0,0004;
4,478319;0,0669;0,9866;0,0866;0,1180;-0,0990;0,0040;-0,0110;0,0356;0,0004;
4,499300;0,0669;0,9866;0,0866;0,0840;-0,0580;-0,1090;-0,0110;0,0356;0,0004;
4,518641;0,0669;0,9866;0,0866;0,0910;0,0220;-0,1000;-0,0110;0,0356;0,0004;
4,541326;0,0598;0,9898;0,0805;0,0910;0,0220;-0,1000;-0,0110;0,0356;0,0004;
4,542979;0,0598;0,9898;0,0805;0,0910;0,0220;-0,1000;-0,0020;-0,0824;-0,0176;
4,543960;0,0598;0,9898;0,0805;0,0360;-0,0590;-0,0420;-0,0020;-0,0824;-0,0176;
4,557677;0,0598;0,9898;0,0805;0,0440;-0,1670;-0,0190;-0,0020;-0,0824;-0,0176;
4,581905;0,0598;0,9898;0,0805;0,1770;-0,0830;0,0610;-0,0020;-0,0824;-0,0176;
4,599766;0,0745;1,0089;0,0808;0,1770;-0,0830;0,0610;-0,0020;-0,0824;-0,0176;
4,601112;0,0745;1,0089;0,0808;0,1770;-0,0830;0,0610;-0,0410;0,0756;0,0104;
4,601777;0,0745;1,0089;0,0808;0,1380;0,1210;-0,0510;-0,0410;0,0756;0,0104;
4,622305;0,0745;1,0089;0,0808;0,0140;0,1900;-0,0030;-0,0410;0,0756;0,0104;
4,640990;0,0745;1,0089;0,0808;0,1390;0,0960;0,1740;-0,0410;0,0756;0,0104;
4,663612;0,0826;0,9977;0,0845;0,1390;0,0960;0,1740;-0,0410;0,0756;0,0104;
4,666488;0,0826;0,9977;0,0845;0,1950;0,0150;-0,0420;-0,0410;0,0756;0,0104;
4,679722;0,0826;0,9977;0,0845;0,1950;0,0150;-0,0420;-0,0290;0,0526;-0,0086;
4,680598;0,0826;0,9977;0,0845;0,0310;0,0970;-0,1580;-0,0290;0,0526;-0,0086;
4,703549;0,0826;0,9977;0,0845;-0,0070;0,0970;-0,0260;-0,0290;0,0526;-0,0086;
4,721623;0,0764;1,0062;0,0842;-0,0070;0,0970;-0,0260;-0,0290;0,0526;-0,0086;
4,723337;0,0764;1,0062;0,0842;0,1190;0,0980;-0,0450;-0,0290;0,0526;-0,0086;
4,743045;0,0764;1,0062;0,0842;0,1190;0,0980;-0,0450;-0,0290;-0,0144;-0,0096;
4,743745;0,0764;1,0062;0,0842;0,1770;0,1410;0,1430;-0,0290;-0,0144;-0,0096;
4,762213;0,0764;1,0062;0,0842;0,0430;0,1150;0,1950;-0,0290;-0,0144;-0,0096;
4,785100;0,0560;1,0031;0,1018;0,0430;0,1150;0,1950;-0,0290;-0,0144;-0,0096;
4,786929;0,0560;1,0031;0,1018;-0,0710;0,0740;0,0910;-0,0290;-0,0144;-0,0096;
4,802090;0,0560;1,0031;0,1018;-0,0710;0,0740;0,0910;-0,0070;-0,0074;0,0144;
4,803790;0,0560;1,0031;0,1018;0,0950;0,1030;0,0580;-0,0070;-0,0074;0,0144;
4,825600;0,0560;1,0031;0,1018;0,2400;0,0900;0,0070;-0,0070;-0,0074;0,0144;
4,843802;0,0708;1,0008;0,0671;0,2400;0,0900;0,0070;-0,0070;-0,0074;0,0144;
4,844406;0,0708;1,0008;0,0671;0,0360;0,0610;-0,2340;-0,0070;-0,0074;0,0144;
4,865595;0,0708;1,0008;0,0671;0,0360;0,0610;-0,2340;-0,0380;-0,0564;-0,0106;
4,866656;0,0708;1,0008;0,0671;-0,0390;0,0350;0,0650;-0,0380;-0,0564;-0,0106;
4,885711;0,0708;1,0008;0,0671;0,0630;-0,0430;0,3890;-0,0380;-0,0564;-0,0106;
4,907193;0,0845;0,9926;0,1026;0,0630;-0,0430;0,3890;-0,0380;-0,0564;-0,0106;
4,908590;0,0845;0,9926;0,1026;0,1580;-0,0150;0,0670;-0,0380;-0,0564;-0,0106;
4,925267;0,0845;0,9926;0,1026;0,0580;0,0090;-0,3140;-0,0380;-0,0564;-0,0106;
4,947184;0,0845;0,9926;0,1026;0,0580;0,0090;-0,3140;-0,0230;0,0336;-0,0036;
4,948850;0,0845;0,9926;0,1026;0,0170;0,0350;-0,1830;-0,0230;0,0336;-0,0036;
4,964950;0,0743;0,9959;0,1084;0,0170;0,0350;-0,1830;-0,0230;0,0336;-0,0036;
4,965895;0,0743;0,9959;0,1084;0,0570;0,0100;0,1410;-0,0230;0,0336;-0,0036;
4,987680;0,0743;0,9959;0,1084;-0,0330;0,0100;0,0780;-0,0230;0,0336;-0,0036;
5,005898;0,0743;0,9959;0,1084;-0,0330;0,0100;0,0780;-0,0120;-0,0064;0,0074;
5,007099;0,0743;0,9959;0,1084;-0,1200;0,0100;0,0580;-0,0120;-0,0064;0,0074;
5,027562;0,0718;1,0010;0,1101;-0,1200;0,0100;0,0580;-0,0120;-0,0064;0,0074;
5,028069;0,0718;1,0010;0,1101;0,0370;0,0660;0,1420;-0,0120;-0,0064;0,0074;
5,046985;0,0718;1,0010;0,1101;0,1610;0,0250;-0,1310;-0,0120;-0,0064;0,0074;
5,069376;0,0718;1,0010;0,1101;0,1610;0,0250;-0,1310;-0,0430;0,0196;-0,0266;
5,071256;0,0718;1,0010;0,1101;0,0530;0,0230;-0,3050;-0,0430;0,0196;-0,0266;
5,086387;0,0584;0,9998;0,0954;0,0530;0,0230;-0,3050;-0,0430;0,0196;-0,0266;
5,088005;0,0584;0,9998;0,0954;-0,0940;0,0510;0,0090;-0,0430;0,0196;-0,0266;
5,110149;0,0584;0,9998;0,0954;-0,1070;0,0650;0,1520;-0,0430;0,0196;-0,0266;
5,127832;0,0584;0,9998;0,0954;-0,1070;0,0650;0,1520;-0,0110;-0,0284;-0,0086;
5,128412;0,0584;0,9998;0,0954;-0,0840;0,1060;-0,0100;-0,0110;-0,0284;-0,0086;
5,149635;0,0550;1,0059;0,0879;-0,0840;0,1060;-0,0100;-0,0110;-0,0284;-0,0086;
5,151339;0,0550;1,0059;0,0879;-0,0900;0,1050;-0,0760;-0,0110;-0,0284;-0,0086;
5,168514;0,0550;1,0059;0,0879;0,0040;0,0930;0,1670;-0,0110;-0,0284;-0,0086;
5,191370;0,0550;1,0059;0,0879;0,0560;0,0800;0,1190;-0,0110;-0,0284;-0,0086;
5,209503;0,0593;1,0003;0,0826;0,0560;0,0800;0,1190;-0,0110;-0,0284;-0,0086;
5,210071;0,0593;1,0003;0,0826;0,0560;0,0800;0,1190;0,0130;0,0126;-0,0026;
5,210349;0,0593;1,0003;0,0826;-0,0480;0,0510;-0,1400;0,0130;0,0126;-0,0026;
5,231142;0,0593;1,0003;0,0826;-0,0830;0,0640;-0,0790;0,0130;0,0126;-0,0026;
5,251450;0,0593;1,0003;0,0826;0,0350;0,1060;0,1950;0,0130;0,0126;-0,0026;
5,272776;0,0745;1,0015;0,1080;0,0350;0,1060;0,1950;0,0130;0,0126;-0,0026;
5,273945;0,0745;1,0015;0,1080;0,0350;0,1060;0,1950;0,0500;-0,0544;0,0004;
5,274864;0,0745;1,0015;0,1080;0,0950;0,0650;0,1030;0,0500;-0,0544;0,0004;
5,291144;0,0745;1,0015;0,1080;0,0370;0,0230;-0,1890;0,0500;-0,0544;0,0004;
5,312506;0,0745;1,0015;0,1080;0,0720;0,0500;-0,1030;0,0500;-0,0544;0,0004;
5,332175;0,0796;1,0040;0,1020;0,0720;0,0500;-0,1030;0,0500;-0,0544;0,0004;
5,332918;0,0796;1,0040;0,1020;0,0720;0,0500;-0,1030;-0,0100;0,0146;-0,0076;
5,333530;0,0796;1,0040;0,1020;0,1310;0,0920;0,0660;-0,0100;0,0146;-0,0076;
5,352001;0,0796;1,0040;0,1020;0,0490;0,1060;-0,0270;-0,0100;0,0146;-0,0076;
5,372815;0,0796;1,0040;0,1020;-0,1040;0,1050;-0,0520;-0,0100;0,0146;-0,0076;
5,393677;0,0580;1,0077;0,1164;-0,1040;0,1050;-0,0520;-0,0100;0,0146;-0,0076;
5,394210;0,0580;1,0077;0,1164;-0,1040;0,1050;-0,0520;0,0330;-0,0704;0,0144;
5,395096;0,0580;1,0077;0,1164;-0,0730;0,1330;0,1960;0,0330;-0,0704;0,0144;
5,412336;0,0580;1,0077;0,1164;0,0810;0,1200;0,2160;0,0330;-0,0704;0,0144;
5,435021;0,0580;1,0077;0,1164;0,1000;0,0790;-0,0300;0,0330;-0,0704;0,0144;
5,454017;0,0706;0,9969;0,0830;0,1000;0,0790;-0,0300;0,0330;-0,0704;0,0144;
5,455518;0,0706;0,9969;0,0830;0,0300;0,0230;-0,1140;0,0330;-0,0704;0,0144;
5,474100;0,0706;0,9969;0,0830;0,0300;0,0230;-0,1140;0,0080;0,0046;0,0084;
5,475457;0,0706;0,9969;0,0830;0,0130;0,0510;0,0230;0,0080;0,0046;0,0084;
5,494028;0,0706;0,9969;0,0830;0,0240;0,0910;0,0270;0,0080;0,0046;0,0084;
5,515678;0,0694;1,0018;0,0791;0,0240;0,0910;0,0270;0,0080;0,0046;0,0084;
5,516861;0,0694;1,0018;0,0791;0,0120;0,0630;-0,1340;0,0080;0,0046;0,0084;
5,534644;0,0694;1,0018;0,0791;0,0120;0,0630;-0,1340;-0,0070;-0,0194;-0,0176;
5,535316;0,0694;1,0018;0,0791;-0,0230;0,1160;-0,1630;-0,0070;-0,0194;-0,0176;
5,555964;0,0694;1,0018;0,0791;0,0050;0,2660;0,0620;-0,0070;-0,0194;-0,0176;
5,575645;0,0652;1,0421;0,1036;0,0050;0,2660;0,0620;-0,0070;-0,0194;-0,0176;
5,576238;0,0652;1,0421;0,1036;-0,0190;0,4570;0,1100;-0,0070;-0,0194;-0,0176;
5,597022;0,0652;1,0421;0,1036;-0,0190;0,4570;0,1100;-0,0400;-0,0544;0,0164;
5,598213;0,0652;1,0421;0,1036;-0,1070;0,8240;-0,0370;-0,0400;-0,0544;0,0164;
5,615944;0,0652;1,0421;0,1036;-0,0510;1,3670;-0,3340;-0,0400;-0,0544;0,0164;
5,637438;0,0880;1,1876;0,0566;-0,0510;1,3670;-0,3340;-0,0400;-0,0544;0,0164;
5,639146;0,0880;1,1876;0,0566;0,2080;1,8850;-0,3270;-0,0400;-0,0544;0,0164;
5,655938;0,0880;1,1876;0,0566;0,2080;1,8850;-0,3270;-0,1340;-0,4274;-0,0366;
5,657368;0,0880;1,1876;0,0566;0,4630;2,1050;-0,0090;-0,1340;-0,4274;-0,0366;
5,677032;0,0880;1,1876;0,0566;0,5980;2,2560;0,6550;-0,1340;-0,4274;-0,0366;
5,698010;0,0967;1,2394;0,1868;0,5980;2,2560;0,6550;-0,1340;-0,4274;-0,0366;
5,699410;0,0967;1,2394;0,1868;0,3330;2,3900;0,9140;-0,1340;-0,4274;-0,0366;
5,717941;0,0967;1,2394;0,1868;-0,1960;2,4810;0,2930;-0,1340;-0,4274;-0,0366;
5,738082;0,0967;1,2394;0,1868;-0,1960;2,4810;0,2930;0,0900;-0,1564;-0,2006;
5,739396;0,0967;1,2394;0,1868;-0,6290;2,5320;-0,3720;0,0900;-0,1564;-0,2006;
5,758273;-0,0379;1,2780;0,0720;-0,6290;2,5320;-0,3720;0,0900;-0,1564;-0,2006;
5,759602;-0,0379;1,2780;0,0720;-0,8880;2,7630;-0,1760;0,0900;-0,1564;-0,2006;
5,777749;-0,0379;1,2780;0,0720;-0,7520;2,8290;0,7820;0,0900;-0,1564;-0,2006;
5,800472;-0,0379;1,2780;0,0720;-0,7520;2,8290;0,7820;0,2500;-0,6784;-0,0726;
5,802037;-0,0379;1,2780;0,0720;-0,3680;2,4420;1,8660;0,2500;-0,6784;-0,0726;
5,818481;0,0064;1,1968;0,2618;-0,3680;2,4420;1,8660;0,2500;-0,6784;-0,0726;
5,820040;0,0064;1,1968;0,2618;-0,4520;1,9560;1,8870;0,2500;-0,6784;-0,0726;
5,840987;0,0064;1,1968;0,2618;-0,6820;1,7010;0,8630;0,2500;-0,6784;-0,0726;
5,860109;0,0064;1,1968;0,2618;-0,6820;1,7010;0,8630;0,7230;-0,0374;-0,1046;
5,860814;0,0064;1,1968;0,2618;-0,9340;1,4350;-0,2710;0,7230;-0,0374;-0,1046;
5,881582;-0,0904;1,1189;0,0078;-0,9340;1,4350;-0,2710;0,7230;-0,0374;-0,1046;
5,883125;-0,0904;1,1189;0,0078;-1,3340;1,1710;-0,1810;0,7230;-0,0374;-0,1046;
5,899569;-0,0904;1,1189;0,0078;-1,6130;0,7040;0,6560;0,7230;-0,0374;-0,1046;
5,921976;-0,0904;1,1189;0,0078;-1,6130;0,7040;0,6560;0,7140;0,0736;-0,0416;
5,923578;-0,0904;1,1189;0,0078;-1,7500;0,0630;1,0930;0,7140;0,0736;-0,0416;
5,940277;-0,1363;0,9891;0,0495;-1,7500;0,0630;1,0930;0,7140;0,0736;-0,0416;
5,941738;-0,1363;0,9891;0,0495;-1,7520;-0,1120;0,6280;0,7140;0,0736;-0,0416;
5,962444;-0,1363;0,9891;0,0495;-2,1020;-0,1630;0,2720;0,7140;0,0736;-0,0416;
5,982087;-0,1363;0,9891;0,0495;-2,4400;-0,2260;0,9050;0,7140;0,0736;-0,0416;
6,003141;-0,2106;0,9367;0,0591;-2,4400;-0,2260;0,9050;0,7140;0,0736;-0,0416;
6,003912;-0,2106;0,9367;0,0591;-2,4400;-0,2260;0,9050;0,8530;0,1206;0,0364;
6,004206;-0,2106;0,9367;0,0591;-2,5040;-0,6120;1,1620;0,8530;0,1206;0,0364;
6,021717;-0,2106;0,9367;0,0591;-2,4220;-0,9930;0,9340;0,8530;0,1206;0,0364;
6,043674;-0,2106;0,9367;0,0591;-1,6610;-0,8960;0,6820;0,8530;0,1206;0,0364;
6,064926;-0,0718;0,9162;-0,0904;-1,6610;-0,8960;0,6820;0,8530;0,1206;0,0364;
6,066822;-0,0718;0,9162;-0,0904;-1,6610;-0,8960;0,6820;0,8270;0,3006;-0,0086;
6,067526;-0,0718;0,9162;-0,0904;-1,1750;-0,7570;0,2140;0,8270;0,3006;-0,0086;
6,084474;-0,0718;0,9162;-0,0904;-1,2100;-0,9300;0,1130;0,8270;0,3006;-0,0086;
6,104259;-0,0718;0,9162;-0,0904;-1,3590;-1,2950;0,6100;0,8270;0,3006;-0,0086;
6,125906;-0,1013;0,8354;-0,0515;-1,3590;-1,2950;0,6100;0,8270;0,3006;-0,0086;
6,128147;-0,1013;0,8354;-0,0515;-1,3590;-1,2950;0,6100;0,6280;0,5186;-0,1006;
6,129014;-0,1013;0,8354;-0,0515;-1,4330;-1,4950;0,9880;0,6280;0,5186;-0,1006;
6,143955;-0,1013;0,8354;-0,0515;-0,9360;-1,4640;0,8780;0,6280;0,5186;-0,1006;
6,166703;-0,1013;0,8354;-0,0515;-0,6490;-1,4620;0,7380;0,6280;0,5186;-0,1006;
6,185320;-0,0078;0,8195;-0,0911;-0,6490;-1,4620;0,7380;0,6280;0,5186;-0,1006;
6,186801;-0,0078;0,8195;-0,0911;-0,6490;-1,4620;0,7380;0,4950;1,4286;-0,2506;
6,187587;-0,0078;0,8195;-0,0911;-0,5470;-1,6090;0,8920;0,4950;1,4286;-0,2506;
6,205600;-0,0078;0,8195;-0,0911;-0,5530;-1,7980;1,2480;0,4950;1,4286;-0,2506;
6,225443;-0,0078;0,8195;-0,0911;-0,4430;-1,8610;1,9090;0,4950;1,4286;-0,2506;
6,245941;0,0008;0,7587;-0,0286;-0,4430;-1,8610;1,9090;0,4950;1,4286;-0,2506;
6,246944;0,0008;0,7587;-0,0286;-0,4110;-2,1500;1,8100;0,4950;1,4286;-0,2506;
6,267050;0,0008;0,7587;-0,0286;-0,4110;-2,1500;1,8100;0,6680;1,2486;-0,3846;
6,268180;0,0008;0,7587;-0,0286;-0,4120;-2,2350;1,1880;0,6680;1,2486;-0,3846;
6,286504;0,0008;0,7587;-0,0286;-0,2250;-2,0490;0,9260;0,6680;1,2486;-0,3846;
6,307361;0,0572;0,7694;-0,1268;-0,2250;-2,0490;0,9260;0,6680;1,2486;-0,3846;
6,308507;0,0572;0,7694;-0,1268;0,1600;-1,9730;1,1380;0,6680;1,2486;-0,3846;
6,327259;0,0572;0,7694;-0,1268;0,1600;-1,9730;1,1380;0,5260;1,4136;-0,4666;
6,329177;0,0572;0,7694;-0,1268;0,2070;-2,0880;0,8030;0,5260;1,4136;-0,4666;
6,348643;0,0572;0,7694;-0,1268;-0,5180;-2,0740;-0,1650;0,5260;1,4136;-0,4666;
6,369129;-0,0168;0,7818;-0,2866;-0,5180;-2,0740;-0,1650;0,5260;1,4136;-0,4666;
6,370237;-0,0168;0,7818;-0,2866;-0,5550;-1,8160;-0,2920;0,5260;1,4136;-0,4666;
6,387566;-0,0168;0,7818;-0,2866;-0,5550;-1,8160;-0,2920;-0,0120;1,2966;-0,1356;
6,388911;-0,0168;0,7818;-0,2866;0,2640;-1,4780;0,9980;-0,0120;1,2966;-0,1356;
6,409557;-0,0168;0,7818;-0,2866;0,7180;-1,6210;1,6190;-0,0120;1,2966;-0,1356;
6,429214;0,1561;0,7955;-0,2437;0,7180;-1,6210;1,6190;-0,0120;1,2966;-0,1356;
6,430669;0,1561;0,7955;-0,2437;1,0820;-1,6680;0,1630;-0,0120;1,2966;-0,1356;
6,450374;0,1561;0,7955;-0,2437;1,0820;-1,6680;0,1630;-0,1880;0,9776;-0,4216;
6,452210;0,1561;0,7955;-0,2437;0,9050;-1,2660;-0,9580;-0,1880;0,9776;-0,4216;
6,470081;0,1561;0,7955;-0,2437;0,8560;-1,0810;-0,2080;-0,1880;0,9776;-0,4216;
6,491404;0,1334;0,8221;-0,1542;0,8560;-1,0810;-0,2080;-0,1880;0,9776;-0,4216;
6,492840;0,1334;0,8221;-0,1542;0,9420;-1,4530;0,8970;-0,1880;0,9776;-0,4216;
6,509256;0,1334;0,8221;-0,1542;0,8620;-1,3960;0,7760;-0,1880;0,9776;-0,4216;
6,532632;0,1334;0,8221;-0,1542;0,8620;-1,3960;0,7760;-0,0890;0,7166;-0,3556;
6,534011;0,1334;0,8221;-0,1542;1,4330;-0,8850;0,2350;-0,0890;0,7166;-0,3556;
6,550222;0,2290;0,8630;-0,3048;1,4330;-0,8850;0,2350;-0,0890;0,7166;-0,3556;
6,551550;0,2290;0,8630;-0,3048;1,9970;-1,0930;-0,7140;-0,0890;0,7166;-0,3556;
6,573441;0,2290;0,8630;-0,3048;1,5250;-1,3810;-1,1210;-0,0890;0,7166;-0,3556;
6,592711;0,2290;0,8630;-0,3048;1,5250;-1,3810;-1,1210;-0,7980;0,8536;-0,5656;
6,594056;0,2290;0,8630;-0,3048;0,6450;-1,2390;-0,8320;-0,7980;0,8536;-0,5656;
6,613750;0,1368;0,8826;-0,1065;0,6450;-1,2390;-0,8320;-0,7980;0,8536;-0,5656;
6,615931;0,1368;0,8826;-0,1065;1,3020;-0,9880;0,7790;-0,7980;0,8536;-0,5656;
6,631862;0,1368;0,8826;-0,1065;1,9270;-1,0950;1,5120;-0,7980;0,8536;-0,5656;
6,654469;0,1368;0,8826;-0,1065;1,9270;-1,0950;1,5120;-0,6650;0,7376;-0,4156;
6,656207;0,1368;0,8826;-0,1065;1,5490;-1,3060;0,2400;-0,6650;0,7376;-0,4156;
6,672495;0,1603;0,9062;-0,1718;1,5490;-1,3060;0,2400;-0,6650;0,7376;-0,4156;
6,673965;0,1603;0,9062;-0,1718;1,5830;-0,8230;-0,2590;-0,6650;0,7376;-0,4156;
6,695063;0,1603;0,9062;-0,1718;1,9210;-0,4910;0,9930;-0,6650;0,7376;-0,4156;
6,713161;0,1603;0,9062;-0,1718;1,9210;-0,4910;0,9930;-0,6180;0,6216;-0,4896;
6,715019;0,1603;0,9062;-0,1718;1,9980;-0,6020;1,6360;-0,6180;0,6216;-0,4896;
6,734508;0,0999;0,8957;-0,0303;1,9980;-0,6020;1,6360;-0,6180;0,6216;-0,4896;
6,736025;0,0999;0,8957;-0,0303;1,2050;-0,9790;0,7250;-0,6180;0,6216;-0,4896;
6,753253;0,0999;0,8957;-0,0303;0,7100;-1,0960;0,4660;-0,6180;0,6216;-0,4896;
6,775799;0,0999;0,8957;-0,0303;1,4170;-1,4440;0,5130;-0,6180;0,6216;-0,4896;
6,794099;0,0936;0,8430;-0,1384;1,4170;-1,4440;0,5130;-0,6180;0,6216;-0,4896;
6,794993;0,0936;0,8430;-0,1384;1,4170;-1,4440;0,5130;-0,4900;0,6926;-0,1516;
6,795546;0,0936;0,8430;-0,1384;1,2430;-1,5200;-0,6250;-0,4900;0,6926;-0,1516;
6,817818;0,0936;0,8430;-0,1384;0,8090;-0,8210;-1,0730;-0,4900;0,6926;-0,1516;
6,834546;0,0936;0,8430;-0,1384;0,9990;-0,5440;0,8600;-0,4900;0,6926;-0,1516;
6,856966;0,0969;0,9465;0,2057;0,9990;-0,5440;0,8600;-0,4900;0,6926;-0,1516;
6,857991;0,0969;0,9465;0,2057;0,9990;-0,5440;0,8600;-0,6050;0,2926;0,1374;
6,858796;0,0969;0,9465;0,2057;1,2260;-0,5220;2,3150;-0,6050;0,2926;0,1374;
6,875499;0,0969;0,9465;0,2057;1,2700;-0,8250;1,2230;-0,6050;0,2926;0,1374;
6,897708;0,0969;0,9465;0,2057;2,2990;-0,7730;-0,7280;-0,6050;0,2926;0,1374;
6,916198;0,1263;0,8896;-0,1263;2,2990;-0,7730;-0,7280;-0,6050;0,2926;0,1374;
6,917982;0,1263;0,8896;-0,1263;2,2990;-0,7730;-0,7280;-0,6660;0,0146;0,1324;
6,919905;0,1263;0,8896;-0,1263;1,3850;-1,0880;-1,1810;-0,6660;0,0146;0,1324;
6,941387;0,1263;0,8896;-0,1263;-0,2320;-0,6660;-0,1790;-0,6660;0,0146;0,1324;
6,956705;0,1263;0,8896;-0,1263;1,4090;0,1650;1,5080;-0,6660;0,0146;0,1324;
6,978856;0,3562;1,0299;0,2467;1,4090;0,1650;1,5080;-0,6660;0,0146;0,1324;
6,981219;0,3562;1,0299;0,2467;1,4090;0,1650;1,5080;-0,2750;-0,2894;0,4084;
6,982870;0,3562;1,0299;0,2467;3,3650;0,2910;2,1150;-0,2750;-0,2894;0,4084;
6,997229;0,3562;1,0299;0,2467;2,1830;0,0890;0,4260;-0,2750;-0,2894;0,4084;
7,019741;0,3562;1,0299;0,2467;0,7610;-0,2050;-1,6740;-0,2750;-0,2894;0,4084;
7,037866;0,1959;1,0334;-0,0836;0,7610;-0,2050;-1,6740;-0,2750;-0,2894;0,4084;
7,039573;0,1959;1,0334;-0,0836;1,5570;0,3340;-1,3590;-0,2750;-0,2894;0,4084;
7,060531;0,1959;1,0334;-0,0836;1,5570;0,3340;-1,3590;-0,7710;-0,4004;0,3604;
7,061532;0,1959;1,0334;-0,0836;1,9890;0,4540;0,9970;-0,7710;-0,4004;0,3604;
7,077086;0,1959;1,0334;-0,0836;1,1560;0,4780;1,5280;-0,7710;-0,4004;0,3604;
7,101911;0,2182;1,0443;0,1612;1,1560;0,4780;1,5280;-0,7710;-0,4004;0,3604;
7,103553;0,2182;1,0443;0,1612;1,5060;0,4770;0,7380;-0,7710;-0,4004;0,3604;
7,118119;0,2182;1,0443;0,1612;1,5060;0,4770;0,7380;-0,5150;-0,4664;0,5634;
7,119358;0,2182;1,0443;0,1612;2,4090;0,5220;0,4500;-0,5150;-0,4664;0,5634;
7,141927;0,2182;1,0443;0,1612;2,4770;0,7040;1,0570;-0,5150;-0,4664;0,5634;
7,179306;0,3707;1,0888;0,2130;2,4770;0,7040;1,0570;-0,5150;-0,4664;0,5634;
7,180435;0,3707;1,0888;0,2130;2,6870;0,9660;0,9700;-0,5150;-0,4664;0,5634;
7,181101;0,3707;1,0888;0,2130;2,6870;0,9660;0,9700;-0,4860;-0,6404;0,2614;
7,181714;0,3707;1,0888;0,2130;2,5500;0,6960;-0,7150;-0,4860;-0,6404;0,2614;
7,201544;0,3707;1,0888;0,2130;2,5060;0,7460;-1,2670;-0,4860;-0,6404;0,2614;
7,223147;0,3364;1,1005;0,1260;2,5060;0,7460;-1,2670;-0,4860;-0,6404;0,2614;
7,224552;0,3364;1,1005;0,1260;2,1900;1,1420;-0,2500;-0,4860;-0,6404;0,2614;
7,240340;0,3364;1,1005;0,1260;2,1900;1,1420;-0,2500;-0,9500;-0,7444;0,0404;
7,241590;0,3364;1,1005;0,1260;1,7370;1,4840;0,1210;-0,9500;-0,7444;0,0404;
7,263689;0,3364;1,1005;0,1260;1,4310;1,5340;-0,0710;-0,9500;-0,7444;0,0404;
7,281834;0,2637;1,1704;0,2921;1,4310;1,5340;-0,0710;-0,9500;-0,7444;0,0404;
7,282704;0,2637;1,1704;0,2921;1,2830;1,9580;0,8440;-0,9500;-0,7444;0,0404;
7,303310;0,2637;1,1704;0,2921;0,5280;2,5260;1,2920;-0,9500;-0,7444;0,0404;
7,322231;0,2637;1,1704;0,2921;0,5280;2,5260;1,2920;-0,9330;-0,6594;-0,2586;
7,323829;0,2637;1,1704;0,2921;-1,2120;2,9300;0,3350;-0,9330;-0,6594;-0,2586;
7,343939;0,0126;1,2562;0,2907;-1,2120;2,9300;0,3350;-0,9330;-0,6594;-0,2586;
7,345353;0,0126;1,2562;0,2907;-1,1990;2,9000;0,3770;-0,9330;-0,6594;-0,2586;
7,363223;0,0126;1,2562;0,2907;-0,0580;2,3630;0,9200;-0,9330;-0,6594;-0,2586;
7,386141;0,0126;1,2562;0,2907;-0,0580;2,3630;0,9200;-0,6420;-1,6264;-0,0426;
7,387435;0,0126;1,2562;0,2907;0,6590;2,0400;0,9150;-0,6420;-1,6264;-0,0426;
7,404148;0,2321;1,1569;0,3538;0,6590;2,0400;0,9150;-0,6420;-1,6264;-0,0426;
7,406002;0,2321;1,1569;0,3538;0,7580;2,0250;0,7660;-0,6420;-1,6264;-0,0426;
7,426804;0,2321;1,1569;0,3538;-0,1050;1,9360;0,1760;-0,6420;-1,6264;-0,0426;
7,444051;0,2321;1,1569;0,3538;-0,1050;1,9360;0,1760;-0,4610;-1,2444;-0,1596;
7,444584;0,2321;1,1569;0,3538;-0,8090;1,9300;-0,1710;-0,4610;-1,2444;-0,1596;
7,468154;0,1129;1,1672;0,3063;-0,8090;1,9300;-0,1710;-0,4610;-1,2444;-0,1596;
7,469385;0,1129;1,1672;0,3063;-0,5240;2,1820;0,1580;-0,4610;-1,2444;-0,1596;
7,485781;0,1129;1,1672;0,3063;-0,1550;2,3900;0,8160;-0,4610;-1,2444;-0,1596;
7,506852;0,1129;1,1672;0,3063;-0,1550;2,3900;0,8160;-0,0930;-1,0404;-0,1286;
7,507755;0,1129;1,1672;0,3063;-0,2510;2,2730;1,8150;-0,0930;-1,0404;-0,1286;
7,525092;0,1407;1,1426;0,5334;-0,2510;2,2730;1,8150;-0,0930;-1,0404;-0,1286;
7,525903;0,1407;1,1426;0,5334;-0,3740;1,9620;2,4130;-0,0930;-1,0404;-0,1286;
7,548444;0,1407;1,1426;0,5334;-0,4810;1,8510;1,6880;-0,0930;-1,0404;-0,1286;
7,566380;0,1407;1,1426;0,5334;-1,1420;1,6820;0,3120;-0,0930;-1,0404;-0,1286;
7,588982;0,0113;1,0861;0,2420;-1,1420;1,6820;0,3120;-0,0930;-1,0404;-0,1286;
7,589974;0,0113;1,0861;0,2420;-1,1420;1,6820;0,3120;0,5150;-0,7044;-0,1096;
7,590775;0,0113;1,0861;0,2420;-1,6830;1,3140;-0,0860;0,5150;-0,7044;-0,1096;
7,605842;0,0113;1,0861;0,2420;-1,2710;1,0470;0,5010;0,5150;-0,7044;-0,1096;
7,629358;0,0113;1,0861;0,2420;-0,5080;1,0250;0,7510;0,5150;-0,7044;-0,1096;
7,647578;0,1395;1,0634;0,2954;-0,5080;1,0250;0,7510;0,5150;-0,7044;-0,1096;
7,649166;0,1395;1,0634;0,2954;-0,5080;1,0250;0,7510;0,4720;-0,6094;-0,1216;
7,649745;0,1395;1,0634;0,2954;-0,4960;1,0260;0,7710;0,4720;-0,6094;-0,1216;
7,669226;0,1395;1,0634;0,2954;-1,3810;0,8050;0,4990;0,4720;-0,6094;-0,1216;
7,688204;0,1395;1,0634;0,2954;-1,9600;0,5750;0,1000;0,4720;-0,6094;-0,1216;
7,711082;0,0274;1,0159;0,1944;-1,9600;0,5750;0,1000;0,4720;-0,6094;-0,1216;
7,712622;0,0274;1,0159;0,1944;-1,9600;0,5750;0,1000;0,3870;-0,7584;-0,1156;
7,713463;0,0274;1,0159;0,1944;-1,5830;0,4740;0,1240;0,3870;-0,7584;-0,1156;
7,727428;0,0274;1,0159;0,1944;-1,0500;0,4310;0,6990;0,3870;-0,7584;-0,1156;
7,752072;0,0274;1,0159;0,1944;-1,0570;0,2870;1,1470;0,3870;-0,7584;-0,1156;
7,769960;0,0413;0,9905;0,2211;-1,0570;0,2870;1,1470;0,3870;-0,7584;-0,1156;
7,771793;0,0413;0,9905;0,2211;-1,0570;0,2870;1,1470;0,4980;-0,6494;-0,1796;
7,772436;0,0413;0,9905;0,2211;-1,2270;0,1580;0,5690;0,4980;-0,6494;-0,1796;
7,790864;0,0413;0,9905;0,2211;-1,1870;0,1930;-0,1100;0,4980;-0,6494;-0,1796;
7,810782;0,0413;0,9905;0,2211;-0,7940;0,2490;0,2570;0,4980;-0,6494;-0,1796;
7,833018;0,1036;0,9901;0,2051;-0,7940;0,2490;0,2570;0,4980;-0,6494;-0,1796;
7,834550;0,1036;0,9901;0,2051;-0,4600;0,0970;0,6430;0,4980;-0,6494;-0,1796;
7,851529;0,1036;0,9901;0,2051;-0,4600;0,0970;0,6430;0,3850;-0,4964;-0,2326;
7,852198;0,1036;0,9901;0,2051;-0,4420;0,0100;0,4160;0,3850;-0,4964;-0,2326;
7,873197;0,1036;0,9901;0,2051;-0,8520;-0,1230;0,0300;0,3850;-0,4964;-0,2326;
7,892007;0,0282;0,9588;0,1221;-0,8520;-0,1230;0,0300;0,3850;-0,4964;-0,2326;
7,892697;0,0282;0,9588;0,1221;-0,9190;-0,2810;0,0380;0,3850;-0,4964;-0,2326;
7,912193;0,0282;0,9588;0,1221;-0,9190;-0,2810;0,0380;0,2990;-0,5764;-0,1386;
7,913664;0,0282;0,9588;0,1221;-0,4410;-0,2360;-0,3440;0,2990;-0,5764;-0,1386;
7,932832;0,0282;0,9588;0,1221;-0,1180;-0,2690;-0,4030;0,2990;-0,5764;-0,1386;
7,953832;0,1099;0,9705;0,1421;-0,1180;-0,2690;-0,4030;0,2990;-0,5764;-0,1386;
7,955262;0,1099;0,9705;0,1421;-0,0370;-0,1750;0,3020;0,2990;-0,5764;-0,1386;
7,972377;0,1099;0,9705;0,1421;-0,0370;-0,1750;0,3020;-0,0820;-0,1394;-0,2026;
7,973698;0,1099;0,9705;0,1421;-0,2120;-0,0820;0,2920;-0,0820;-0,1394;-0,2026;
7,994660;0,1099;0,9705;0,1421;-0,3110;0,1310;0,0370;-0,0820;-0,1394;-0,2026;
8,013826;0,0179;1,0099;0,0920;-0,3110;0,1310;0,0370;-0,0820;-0,1394;-0,2026;
8,015364;0,0179;1,0099;0,0920;-0,7400;0,1920;-0,2590;-0,0820;-0,1394;-0,2026;
8,034054;0,0179;1,0099;0,0920;-0,7400;0,1920;-0,2590;-0,2890;-0,1284;-0,0566;
8,035353;0,0179;1,0099;0,0920;-0,5460;0,0690;-0,1370;-0,2890;-0,1284;-0,0566;
8,054521;0,0179;1,0099;0,0920;0,0060;0,0920;0,2640;-0,2890;-0,1284;-0,0566;
8,077641;0,0904;1,0106;0,1681;0,0060;0,0920;0,2640;-0,2890;-0,1284;-0,0566;
8,078954;0,0904;1,0106;0,1681;0,0550;0,2220;0,2960;-0,2890;-0,1284;-0,0566;
8,094888;0,0904;1,0106;0,1681;-0,1870;0,3190;-0,1120;-0,2890;-0,1284;-0,0566;
8,116469;0,0904;1,0106;0,1681;-0,1870;0,3190;-0,1120;-0,1550;0,1116;-0,0296;
8,117410;0,0904;1,0106;0,1681;-0,2270;0,4550;-0,0880;-0,1550;0,1116;-0,0296;
8,135062;0,0515;1,0282;0,1824;-0,2270;0,4550;-0,0880;-0,1550;0,1116;-0,0296;
8,136462;0,0515;1,0282;0,1824;-0,2430;0,3910;0,3630;-0,1550;0,1116;-0,0296;
8,156688;0,0515;1,0282;0,1824;-0,1160;0,2470;0,6130;-0,1550;0,1116;-0,0296;
8,176527;0,0515;1,0282;0,1824;-0,1160;0,2470;0,6130;0,0260;0,2236;0,0084;
8,177014;0,0515;1,0282;0,1824;-0,0520;0,0710;0,2570;0,0260;0,2236;0,0084;
8,197552;0,0771;0,9996;0,2008;-0,0520;0,0710;0,2570;0,0260;0,2236;0,0084;
8,199142;0,0771;0,9996;0,2008;0,0250;0,1270;0,4710;0,0260;0,2236;0,0084;
8,215983;0,0771;0,9996;0,2008;0,0070;0,0850;0,7250;0,0260;0,2236;0,0084;
8,238293;0,0771;0,9996;0,2008;0,0070;0,0850;0,7250;0,3670;0,0896;0,0134;
8,239693;0,0771;0,9996;0,2008;-0,0060;-0,1800;0,2720;0,3670;0,0896;0,0134;
8,256804;0,0610;0,9432;0,0632;-0,0060;-0,1800;0,2720;0,3670;0,0896;0,0134;
8,258120;0,0610;0,9432;0,0632;-0,1340;-0,4560;-0,7040;0,3670;0,0896;0,0134;
8,277915;0,0610;0,9432;0,0632;-0,2710;-0,4300;-1,6780;0,3670;0,0896;0,0134;
8,299088;0,0610;0,9432;0,0632;-0,2710;-0,4300;-1,6780;-0,0100;-0,1924;0,1154;
8,299866;0,0610;0,9432;0,0632;-0,0390;-0,2030;-0,6870;-0,0100;-0,1924;0,1154;
8,318165;0,1344;0,9402;0,2257;-0,0390;-0,2030;-0,6870;-0,0100;-0,1924;0,1154;
8,319323;0,1344;0,9402;0,2257;0,5240;-0,4900;0,9810;-0,0100;-0,1924;0,1154;
8,338607;0,1344;0,9402;0,2257;0,8460;-0,8500;1,2900;-0,0100;-0,1924;0,1154;
8,359890;0,1344;0,9402;0,2257;0,5440;-0,7430;0,1890;-0,0100;-0,1924;0,1154;
8,379806;0,1202;0,9490;-0,0193;0,5440;-0,7430;0,1890;-0,0100;-0,1924;0,1154;
8,380818;0,1202;0,9490;-0,0193;0,5440;-0,7430;0,1890;0,3230;0,5296;0,0024;
8,381487;0,1202;0,9490;-0,0193;0,3500;-0,4220;-1,2610;0,3230;0,5296;0,0024;
8,399642;0,1202;0,9490;-0,0193;0,5640;-0,3060;-0,5280;0,3230;0,5296;0,0024;
8,420147;0,1202;0,9490;-0,0193;0,9420;-0,7400;0,8310;0,3230;0,5296;0,0024;
8,441827;0,1642;0,8969;0,1532;0,9420;-0,7400;0,8310;0,3230;0,5296;0,0024;
8,443332;0,1642;0,8969;0,1532;0,9420;-0,7400;0,8310;0,5290;-0,3244;-0,2316;
8,444395;0,1642;0,8969;0,1532;0,8600;-0,9570;0,6670;0,5290;-0,3244;-0,2316;
8,459884;0,1642;0,8969;0,1532;0,4450;-0,9140;-0,3300;0,5290;-0,3244;-0,2316;
8,483229;0,1642;0,8969;0,1532;0,1420;-0,8520;-1,0750;0,5290;-0,3244;-0,2316;
8,501489;0,0696;0,9278;0,0263;0,1420;-0,8520;-1,0750;0,5290;-0,3244;-0,2316;
8,502543;0,0696;0,9278;0,0263;0,1420;-0,8520;-1,0750;0,1580;-0,1084;-0,1506;
8,503135;0,0696;0,9278;0,0263;0,0490;-0,6800;-0,4000;0,1580;-0,1084;-0,1506;
8,521752;0,0696;0,9278;0,0263;0,0420;-0,8840;0,5990;0,1580;-0,1084;-0,1506;
8,542104;0,0696;0,9278;0,0263;0,1910;-1,0070;0,2920;0,1580;-0,1084;-0,1506;
8,563927;0,0906;0,9008;0,0002;0,1910;-1,0070;0,2920;0,1580;-0,1084;-0,1506;
8,565096;0,0906;0,9008;0,0002;0,1910;-1,0070;0,2920;0,0650;0,0246;-0,0326;
8,565726;0,0906;0,9008;0,0002;0,2830;-0,9410;-0,6370;0,0650;0,0246;-0,0326;
8,581611;0,0906;0,9008;0,0002;0,2720;-0,6950;-1,1250;0,0650;0,0246;-0,0326;
8,603945;0,0906;0,9008;0,0002;0,3350;-0,5570;-0,4310;0,0650;0,0246;-0,0326;
8,623645;0,1195;0,9476;0,0926;0,3350;-0,5570;-0,4310;0,0650;0,0246;-0,0326;
8,624836;0,1195;0,9476;0,0926;0,4830;-0,4830;0,2020;0,0650;0,0246;-0,0326;
8,643681;0,1195;0,9476;0,0926;0,4830;-0,4830;0,2020;-0,0950;-0,0414;-0,0146;
8,645005;0,1195;0,9476;0,0926;0,3950;-0,4240;0,0800;-0,0950;-0,0414;-0,0146;
8,665875;0,1195;0,9476;0,0926;0,1600;-0,2730;-0,2350;-0,0950;-0,0414;-0,0146;
8,685958;0,0869;0,9742;0,0468;0,1600;-0,2730;-0,2350;-0,0950;-0,0414;-0,0146;
8,687363;0,0869;0,9742;0,0468;0,1020;-0,2160;-0,2800;-0,0950;-0,0414;-0,0146;
8,705345;0,0869;0,9742;0,0468;0,1020;-0,2160;-0,2800;-0,1300;0,0526;0,0674;
8,706664;0,0869;0,9742;0,0468;0,1430;-0,1740;-0,3750;-0,1300;0,0526;0,0674;
8,726234;0,0869;0,9742;0,0468;0,2390;-0,0330;-0,1090;-0,1300;0,0526;0,0674;
8,745299;0,1251;0,9922;0,1045;0,2390;-0,0330;-0,1090;-0,1300;0,0526;0,0674;
8,745915;0,1251;0,9922;0,1045;0,3710;-0,0250;0,2290;-0,1300;0,0526;0,0674;
8,767485;0,1251;0,9922;0,1045;0,3710;-0,0250;0,2290;-0,0840;0,0106;0,0314;
8,768120;0,1251;0,9922;0,1045;0,3490;-0,0340;0,0430;-0,0840;0,0106;0,0314;
8,791034;0,1251;0,9922;0,1045;0,2150;0,0210;-0,3400;-0,0840;0,0106;0,0314;
8,813117;0,1192;1,0031;0,0554;0,2150;0,0210;-0,3400;-0,0840;0,0106;0,0314;
8,814352;0,1192;1,0031;0,0554;0,2140;0,0920;-0,2770;-0,0840;0,0106;0,0314;
8,830273;0,1192;1,0031;0,0554;0,2140;0,0920;-0,2770;-0,1400;0,0136;0,0084;
8,831696;0,1192;1,0031;0,0554;0,4600;0,2070;-0,0190;-0,1400;0,0136;0,0084;
8,853346;0,1192;1,0031;0,0554;0,4070;0,2930;-0,0350;-0,1400;0,0136;0,0084;
8,871951;0,1236;1,0211;0,0745;0,4070;0,2930;-0,0350;-0,1400;0,0136;0,0084;
8,873935;0,1236;1,0211;0,0745;0,1860;0,2800;-0,1340;-0,1400;0,0136;0,0084;
8,894436;0,1236;1,0211;0,0745;0,1860;0,2800;-0,1340;-0,0970;-0,0304;-0,0386;
8,895782;0,1236;1,0211;0,0745;0,0190;0,2660;-0,1670;-0,0970;-0,0304;-0,0386;
8,911210;0,1236;1,0211;0,0745;0,0510;0,3230;0,2660;-0,0970;-0,0304;-0,0386;
8,935041;0,1185;1,0106;0,1177;0,0510;0,3230;0,2660;-0,0970;-0,0304;-0,0386;
8,936207;0,1185;1,0106;0,1177;0,1560;0,1870;0,2460;-0,0970;-0,0304;-0,0386;
8,952034;0,1185;1,0106;0,1177;0,1240;0,1160;-0,3820;-0,0970;-0,0304;-0,0386;
8,976977;0,1185;1,0106;0,1177;0,1240;0,1160;-0,3820;-0,0460;0,0076;-0,0176;
8,978205;0,1185;1,0106;0,1177;0,1320;0,1700;-0,3740;-0,0460;0,0076;-0,0176;
8,992286;0,1158;1,0064;0,0908;0,1320;0,1700;-0,3740;-0,0460;0,0076;-0,0176;
8,993608;0,1158;1,0064;0,0908;0,1180;0,1440;0,0320;-0,0460;0,0076;-0,0176;
9,016513;0,1158;1,0064;0,0908;-0,0450;0,0490;0,1610;-0,0460;0,0076;-0,0176;
9,034337;0,1158;1,0064;0,0908;-0,0450;0,0490;0,1610;0,0020;-0,0284;-0,0216;
9,035409;0,1158;1,0064;0,0908;-0,1120;0,0220;0,3000;0,0020;-0,0284;-0,0216;
9,056004;0,0938;0,9959;0,1036;-0,1120;0,0220;0,3000;0,0020;-0,0284;-0,0216;
9,057240;0,0938;0,9959;0,1036;-0,0650;0,0350;0,1080;0,0020;-0,0284;-0,0216;
9,074965;0,0938;0,9959;0,1036;0,1020;-0,0070;-0,4370;0,0020;-0,0284;-0,0216;
9,097551;0,0938;0,9959;0,1036;0,1020;-0,0070;-0,4370;-0,1220;-0,0764;-0,0106;
9,098919;0,0938;0,9959;0,1036;0,1060;-0,0240;-0,8330;-0,1220;-0,0764;-0,0106;
9,114830;0,1148;0,9959;0,0493;0,1060;-0,0240;-0,8330;-0,1220;-0,0764;-0,0106;
9,116223;0,1148;0,9959;0,0493;0,1130;0,0300;-0,3310;-0,1220;-0,0764;-0,0106;
9,138690;0,1148;0,9959;0,0493;0,1350;-0,0050;0,3760;-0,1220;-0,0764;-0,0106;
9,156508;0,1148;0,9959;0,0493;0,1350;-0,0050;0,3760;-0,0480;0,0616;-0,0396;
9,157741;0,1148;0,9959;0,0493;0,1080;-0,0140;0,3740;-0,0480;0,0616;-0,0396;
9,178157;0,0872;1,0050;0,0915;0,1080;-0,0140;0,3740;-0,0480;0,0616;-0,0396;
9,179593;0,0872;1,0050;0,0915;-0,1440;0,1330;-0,0290;-0,0480;0,0616;-0,0396;
9,197025;0,0872;1,0050;0,0915;-0,2040;0,2400;-0,0730;-0,0480;0,0616;-0,0396;
9,219540;0,0872;1,0050;0,0915;-0,0500;0,1590;0,0960;-0,0480;0,0616;-0,0396;
9,237573;0,1207;0,9954;0,0989;-0,0500;0,1590;0,0960;-0,0480;0,0616;-0,0396;
9,239195;0,1207;0,9954;0,0989;-0,0500;0,1590;0,0960;0,0330;-0,1444;-0,0036;
9,239872;0,1207;0,9954;0,0989;0,1910;0,0370;0,0470;0,0330;-0,1444;-0,0036;
9,259292;0,1207;0,9954;0,0989;0,1910;0,0510;-0,1590;0,0330;-0,1444;-0,0036;
9,277661;0,1207;0,9954;0,0989;0,1200;0,1490;0,0430;0,0330;-0,1444;-0,0036;
9,302229;0,1070;1,0084;0,1272;0,1200;0,1490;0,0430;0,0330;-0,1444;-0,0036;
9,303735;0,1070;1,0084;0,1272;0,1200;0,1490;0,0430;-0,0020;0,0486;-0,0386;
9,304417;0,1070;1,0084;0,1272;0,0570;0,1640;0,2900;-0,0020;0,0486;-0,0386;
9,318513;0,1070;1,0084;0,1272;-0,0270;0,0940;0,0230;-0,0020;0,0486;-0,0386;
9,341277;0,1070;1,0084;0,1272;-0,0960;0,0510;-0,1890;-0,0020;0,0486;-0,0386;
9,359296;0,0948;0,9996;0,0842;-0,0960;0,0510;-0,1890;-0,0020;0,0486;-0,0386;
9,359783;0,0948;0,9996;0,0842;-0,0960;0,0510;-0,1890;-0,0400;0,0336;-0,0036;
9,360039;0,0948;0,9996;0,0842;-0,0370;0,0770;-0,1050;-0,0400;0,0336;-0,0036;
9,381419;0,0948;0,9996;0,0842;0,0040;0,0640;-0,0680;-0,0400;0,0336;-0,0036;
9,400492;0,0948;0,9996;0,0842;0,0550;0,0370;-0,0400;-0,0400;0,0336;-0,0036;
9,422866;0,1018;0,9966;0,0969;0,0550;0,0370;-0,0400;-0,0400;0,0336;-0,0036;
9,423870;0,1018;0,9966;0,0969;0,0550;0,0370;-0,0400;0,0140;-0,0394;0,0054;
9,424516;0,1018;0,9966;0,0969;0,0250;0,0500;0,0160;0,0140;-0,0394;0,0054;
9,439793;0,1018;0,9966;0,0969;0,0220;-0,0030;0,0680;0,0140;-0,0394;0,0054;
9,463182;0,1018;0,9966;0,0969;0,0300;-0,0170;-0,1640;0,0140;-0,0394;0,0054;
9,481339;0,1058;0,9954;0,0579;0,0300;-0,0170;-0,1640;0,0140;-0,0394;0,0054;
9,482470;0,1058;0,9954;0,0579;0,0480;0,0360;-0,3320;0,0140;-0,0394;0,0054;
9,503173;0,1058;0,9954;0,0579;0,0480;0,0360;-0,3320;-0,0200;-0,0914;0,0144;
9,504156;0,1058;0,9954;0,0579;0,0540;0,0770;-0,0940;-0,0200;-0,0914;0,0144;
9,521809;0,1058;0,9954;0,0579;0,0620;0,0650;0,0810;-0,0200;-0,0914;0,0144;
9,544485;0,0989;1,0008;0,1008;0,0620;0,0650;0,0810;-0,0200;-0,0914;0,0144;
9,545590;0,0989;1,0008;0,1008;-0,0290;0,0930;0,0640;-0,0200;-0,0914;0,0144;
9,561239;0,0989;1,0008;0,1008;-0,0290;0,0930;0,0640;-0,0600;-0,0514;0,0004;
9,561882;0,0989;1,0008;0,1008;0,0000;0,2440;-0,0370;-0,0600;-0,0514;0,0004;
9,585337;0,0989;1,0008;0,1008;0,0250;0,4760;0,0270;-0,0600;-0,0514;0,0004;
9,603130;0,1099;1,0709;0,0989;0,0250;0,4760;0,0270;-0,0600;-0,0514;0,0004;
9,604451;0,1099;1,0709;0,0989;0,0780;0,7760;0,0400;-0,0600;-0,0514;0,0004;
9,626417;0,1099;1,0709;0,0989;0,0780;0,7760;0,0400;-0,1160;-0,2294;-0,0426;
9,627678;0,1099;1,0709;0,0989;0,1740;1,5230;-0,2070;-0,1160;-0,2294;-0,0426;
9,644003;0,1099;1,0709;0,0989;0,1230;2,1650;-0,2540;-0,1160;-0,2294;-0,0426;
9,665621;0,1295;1,2587;0,1304;0,1230;2,1650;-0,2540;-0,1160;-0,2294;-0,0426;
9,668438;0,1295;1,2587;0,1304;0,2770;2,6150;0,3220;-0,1160;-0,2294;-0,0426;
9,684405;0,1295;1,2587;0,1304;0,2770;2,6150;0,3220;-0,0050;-0,2124;-0,1366;
9,685435;0,1295;1,2587;0,1304;0,2120;3,3350;0,6090;-0,0050;-0,2124;-0,1366;
9,707168;0,1295;1,2587;0,1304;-0,0470;3,8630;0,3250;-0,0050;-0,2124;-0,1366;
9,725514;0,0411;1,3889;0,1341;-0,0470;3,8630;0,3250;-0,0050;-0,2124;-0,1366;
9,726055;0,0411;1,3889;0,1341;-0,5190;3,8880;0,3690;-0,0050;-0,2124;-0,1366;
9,746995;0,0411;1,3889;0,1341;-0,8030;3,6230;1,1850;-0,0050;-0,2124;-0,1366;
9,765018;0,0411;1,3889;0,1341;-0,8030;3,6230;1,1850;0,2680;-0,1604;-0,1336;
9,766997;0,0411;1,3889;0,1341;-0,9160;3,0170;1,0920;0,2680;-0,1604;-0,1336;
9,788535;0,0042;1,2391;0,1311;-0,9160;3,0170;1,0920;0,2680;-0,1604;-0,1336;
9,790017;0,0042;1,2391;0,1311;-0,7980;2,3960;0,4900;0,2680;-0,1604;-0,1336;
9,806022;0,0042;1,2391;0,1311;-1,1530;2,0210;0,5680;0,2680;-0,1604;-0,1336;
9,829139;0,0042;1,2391;0,1311;-1,1530;2,0210;0,5680;0,4660;-0,5044;-0,1456;
9,830684;0,0042;1,2391;0,1311;-1,4840;1,4960;1,6970;0,4660;-0,5044;-0,1456;
9,845839;-0,0630;1,0807;0,2436;-1,4840;1,4960;1,6970;0,4660;-0,5044;-0,1456;
9,846676;-0,0630;1,0807;0,2436;-1,3800;0,8180;1,8890;0,4660;-0,5044;-0,1456;
9,869754;-0,0630;1,0807;0,2436;-1,4180;0,2660;0,9520;0,4660;-0,5044;-0,1456;
9,887992;-0,0630;1,0807;0,2436;-1,4180;0,2660;0,9520;0,5970;0,3256;0,0024;
9,889454;-0,0630;1,0807;0,2436;-1,4540;-0,1190;0,0180;0,5970;0,3256;0,0024;
9,909551;-0,0579;0,9605;0,0010;-1,4540;-0,1190;0,0180;0,5970;0,3256;0,0024;
9,911390;-0,0579;0,9605;0,0010;-1,3070;-0,3650;-0,1170;0,5970;0,3256;0,0024;
9,927957;-0,0579;0,9605;0,0010;-1,2880;-0,7200;0,7960;0,5970;0,3256;0,0024;
9,951163;-0,0579;0,9605;0,0010;-1,2880;-0,7200;0,7960;0,7690;0,3486;-0,1106;
9,952431;-0,0579;0,9605;0,0010;-1,6900;-0,9120;1,7000;0,7690;0,3486;-0,1106;
9,967863;-0,1172;0,8838;0,1791;-1,6900;-0,9120;1,7000;0,7690;0,3486;-0,1106;
9,969633;-0,1172;0,8838;0,1791;-1,8480;-1,1280;2,0060;0,7690;0,3486;-0,1106;
9,991427;-0,1172;0,8838;0,1791;-1,7840;-1,3400;1,5350;0,7690;0,3486;-0,1106;
10,009430;-0,1172;0,8838;0,1791;-1,7570;-1,3140;0,7450;0,7690;0,3486;-0,1106;
10,031947;-0,0811;0,8654;-0,0604;-1,7570;-1,3140;0,7450;0,7690;0,3486;-0,1106;
10,033842;-0,0811;0,8654;-0,0604;-1,7570;-1,3140;0,7450;1,1460;0,7586;0,0524;
10,034511;-0,0811;0,8654;-0,0604;-1,5180;-1,2690;0,2780;1,1460;0,7586;0,0524;
10,051109;-0,0811;0,8654;-0,0604;-1,3160;-1,2630;0,1770;1,1460;0,7586;0,0524;
10,072297;-0,0811;0,8654;-0,0604;-1,4120;-1,2570;0,3250;1,1460;0,7586;0,0524;
10,091686;-0,0447;0,8693;-0,0616;-1,4120;-1,2570;0,3250;1,1460;0,7586;0,0524;
10,093102;-0,0447;0,8693;-0,0616;-1,4120;-1,2570;0,3250;0,9310;0,3556;-0,1376;
10,093798;-0,0447;0,8693;-0,0616;-1,1350;-1,1660;0,8140;0,9310;0,3556;-0,1376;
10,111631;-0,0447;0,8693;-0,0616;-0,6850;-1,0170;0,7970;0,9310;0,3556;-0,1376;
10,132450;-0,0447;0,8693;-0,0616;-0,5140;-1,0340;0,3810;0,9310;0,3556;-0,1376;
10,153481;0,0267;0,8769;-0,1246;-0,5140;-1,0340;0,3810;0,9310;0,3556;-0,1376;
10,155259;0,0267;0,8769;-0,1246;-0,5140;-1,0340;0,3810;0,6720;1,2936;-0,2746;
10,156076;0,0267;0,8769;-0,1246;-0,4150;-1,0260;0,6340;0,6720;1,2936;-0,2746;
10,171821;0,0267;0,8769;-0,1246;-0,3520;-1,3310;1,1870;0,6720;1,2936;-0,2746;
10,194021;0,0267;0,8769;-0,1246;-0,2710;-1,6210;0,9190;0,6720;1,2936;-0,2746;
10,213751;0,0469;0,8332;-0,0985;-0,2710;-1,6210;0,9190;0,6720;1,2936;-0,2746;
10,215487;0,0469;0,8332;-0,0985;-0,2710;-1,6210;0,9190;0,7060;1,3396;-0,4766;
10,216290;0,0469;0,8332;-0,0985;-0,1710;-1,3970;1,1610;0,7060;1,3396;-0,4766;
10,233802;0,0469;0,8332;-0,0985;0,1040;-1,3530;1,5450;0,7060;1,3396;-0,4766;
10,254774;0,0469;0,8332;-0,0985;0,2620;-1,6220;1,0470;0,7060;1,3396;-0,4766;
10,275986;0,0642;0,7962;-0,2265;0,2620;-1,6220;1,0470;0,7060;1,3396;-0,4766;
10,277694;0,0642;0,7962;-0,2265;0,0470;-1,7180;0,1170;0,7060;1,3396;-0,4766;
10,294805;0,0642;0,7962;-0,2265;0,0470;-1,7180;0,1170;0,6490;1,2416;-0,5116;
10,295642;0,0642;0,7962;-0,2265;-0,1850;-1,6800;-0,3040;0,6490;1,2416;-0,5116;
10,315322;0,0642;0,7962;-0,2265;-0,1330;-1,8920;-0,3720;0,6490;1,2416;-0,5116;
10,338886;0,0664;0,7557;-0,2969;-0,1330;-1,8920;-0,3720;0,6490;1,2416;-0,5116;
10,341654;0,0664;0,7557;-0,2969;0,1540;-2,0590;-0,3440;0,6490;1,2416;-0,5116;
10,355505;0,0664;0,7557;-0,2969;0,1540;-2,0590;-0,3440;0,1450;1,0276;-0,2926;
10,356969;0,0664;0,7557;-0,2969;0,5790;-1,9580;-0,3530;0,1450;1,0276;-0,2926;
10,375973;0,0664;0,7557;-0,2969;0,8840;-1,8490;-0,5960;0,1450;1,0276;-0,2926;
10,397395;0,1514;0,7564;-0,3570;0,8840;-1,8490;-0,5960;0,1450;1,0276;-0,2926;
10,401286;0,1514;0,7564;-0,3570;1,0060;-2,0480;-0,9380;0,1450;1,0276;-0,2926;
10,416129;0,1514;0,7564;-0,3570;1,0060;-2,0480;-0,9380;-0,4080;1,0606;-0,3556;
10,417585;0,1514;0,7564;-0,3570;0,8040;-2,1370;-0,8200;-0,4080;1,0606;-0,3556;
10,438018;0,1514;0,7564;-0,3570;1,0790;-1,8960;-0,2310;-0,4080;1,0606;-0,3556;
10,457822;0,2023;0,7723;-0,2510;1,0790;-1,8960;-0,2310;-0,4080;1,0606;-0,3556;
10,459787;0,2023;0,7723;-0,2510;1,3360;-1,9320;-0,0690;-0,4080;1,0606;-0,3556;
10,478410;0,2023;0,7723;-0,2510;1,3360;-1,9320;-0,0690;-0,5060;0,8106;-0,5326;
10,480140;0,2023;0,7723;-0,2510;0,9170;-1,9820;-0,1840;-0,5060;0,8106;-0,5326;
10,498341;0,2023;0,7723;-0,2510;0,2010;-1,6310;-0,2060;-0,5060;0,8106;-0,5326;
10,520618;0,0920;0,8320;-0,2332;0,2010;-1,6310;-0,2060;-0,5060;0,8106;-0,5326;
10,522297;0,0920;0,8320;-0,2332;0,2630;-1,3960;-0,0980;-0,5060;0,8106;-0,5326;
10,537965;0,0920;0,8320;-0,2332;0,7510;-1,5150;0,0500;-0,5060;0,8106;-0,5326;
10,560037;0,0920;0,8320;-0,2332;0,7510;-1,5150;0,0500;-0,6920;0,6836;-0,3716;
10,561541;0,0920;0,8320;-0,2332;0,5720;-1,4860;0,0440;-0,6920;0,6836;-0,3716;
10,578353;0,1146;0,8717;-0,1706;0,5720;-1,4860;0,0440;-0,6920;0,6836;-0,3716;
10,579708;0,1146;0,8717;-0,1706;0,4660;-1,0840;0,1030;-0,6920;0,6836;-0,3716;
10,600422;0,1146;0,8717;-0,1706;0,3950;-0,9900;0,7560;-0,6920;0,6836;-0,3716;
10,619918;0,1146;0,8717;-0,1706;0,3950;-0,9900;0,7560;-0,5990;0,7966;-0,2656;
10,621582;0,1146;0,8717;-0,1706;0,2610;-0,9580;0,5600;-0,5990;0,7966;-0,2656;
10,640311;0,1031;0,8952;-0,1918;0,2610;-0,9580;0,5600;-0,5990;0,7966;-0,2656;
10,642816;0,1031;0,8952;-0,1918;0,3990;-0,9170;-0,4940;-0,5990;0,7966;-0,2656;
10,660214;0,1031;0,8952;-0,1918;0,9030;-0,6680;0,3230;-0,5990;0,7966;-0,2656;
10,682078;0,1031;0,8952;-0,1918;0,9030;-0,6680;0,3230;-0,5790;0,8586;-0,2666;
10,683876;0,1031;0,8952;-0,1918;0,8770;-0,8090;1,7350;-0,5790;0,8586;-0,2666;
10,700222;0,0520;0,9290;0,0488;0,8770;-0,8090;1,7350;-0,5790;0,8586;-0,2666;
10,701961;0,0520;0,9290;0,0488;-0,0290;-0,6440;1,4610;-0,5790;0,8586;-0,2666;
10,722333;0,0520;0,9290;0,0488;0,1600;-0,4610;0,4630;-0,5790;0,8586;-0,2666;
10,741912;0,0520;0,9290;0,0488;0,1600;-0,4610;0,4630;-0,3770;0,6776;-0,1336;
10,743181;0,0520;0,9290;0,0488;0,9470;-0,9960;0,1870;-0,3770;0,6776;-0,1336;
10,762225;0,1151;0,8654;-0,0855;0,9470;-0,9960;0,1870;-0,3770;0,6776;-0,1336;
10,764071;0,1151;0,8654;-0,0855;0,4750;-1,2850;-0,0900;-0,3770;0,6776;-0,1336;
10,782945;0,1151;0,8654;-0,0855;0,1650;-0,8850;-0,6420;-0,3770;0,6776;-0,1336;
10,804213;0,1151;0,8654;-0,0855;1,2140;-0,7290;0,3690;-0,3770;0,6776;-0,1336;
10,823273;0,1246;0,8987;0,0339;1,2140;-0,7290;0,3690;-0,3770;0,6776;-0,1336;
10,825256;0,1246;0,8987;0,0339;1,2140;-0,7290;0,3690;-0,6810;0,6156;-0,0596;
10,826550;0,1246;0,8987;0,0339;0,5780;-0,9810;0,6760;-0,6810;0,6156;-0,0596;
10,844022;0,1246;0,8987;0,0339;-1,1300;-0,6830;0,0850;-0,6810;0,6156;-0,0596;
10,864137;0,1246;0,8987;0,0339;0,2550;0,1390;-0,1700;-0,6810;0,6156;-0,0596;
10,885178;0,2786;1,0018;0,0679;0,2550;0,1390;-0,1700;-0,6810;0,6156;-0,0596;
10,886695;0,2786;1,0018;0,0679;0,2550;0,1390;-0,1700;-0,8360;0,1226;0,3614;
10,887435;0,2786;1,0018;0,0679;1,8840;0,0360;0,5490;-0,8360;0,1226;0,3614;
10,904866;0,2786;1,0018;0,0679;1,2630;-0,3100;1,3030;-0,8360;0,1226;0,3614;
10,926147;0,2786;1,0018;0,0679;0,6600;-0,4930;0,5690;-0,8360;0,1226;0,3614;
10,945121;0,2061;1,0054;-0,0112;0,6600;-0,4930;0,5690;-0,8360;0,1226;0,3614;
10,946209;0,2061;1,0054;-0,0112;0,6600;-0,4930;0,5690;-0,4950;0,2766;0,1424;
10,946696;0,2061;1,0054;-0,0112;1,0500;0,0990;-0,5630;-0,4950;0,2766;0,1424;
10,966437;0,2061;1,0054;-0,0112;0,1360;0,4350;-0,5860;-0,4950;0,2766;0,1424;
10,985268;0,2061;1,0054;-0,0112;-0,2950;0,4640;0,6030;-0,4950;0,2766;0,1424;
11,006325;0,1971;1,0434;0,2574;-0,2950;0,4640;0,6030;-0,4950;0,2766;0,1424;
11,007819;0,1971;1,0434;0,2574;-0,2950;0,4640;0,6030;-0,4670;0,0796;0,5044;
11,008753;0,1971;1,0434;0,2574;0,7660;0,5110;1,6990;-0,4670;0,0796;0,5044;
11,025572;0,1971;1,0434;0,2574;1,3250;0,9530;1,0390;-0,4670;0,0796;0,5044;
11,047630;0,1971;1,0434;0,2574;0,9970;1,0950;0,0150;-0,4670;0,0796;0,5044;
11,067466;0,2578;1,0812;0,0830;0,9970;1,0950;0,0150;-0,4670;0,0796;0,5044;
11,068735;0,2578;1,0812;0,0830;1,0510;0,9440;-0,2560;-0,4670;0,0796;0,5044;
11,087112;0,2578;1,0812;0,0830;1,0510;0,9440;-0,2560;-0,4930;0,2366;0,2504;
11,088360;0,2578;1,0812;0,0830;1,8980;1,0570;0,2420;-0,4930;0,2366;0,2504;
11,110189;0,2578;1,0812;0,0830;1,1780;1,0960;0,4380;-0,4930;0,2366;0,2504;
11,128829;0,1605;1,1020;0,0947;1,1780;1,0960;0,4380;-0,4930;0,2366;0,2504;
11,129723;0,1605;1,1020;0,0947;0,0170;1,1860;-0,3340;-0,4930;0,2366;0,2504;
11,147176;0,1605;1,1020;0,0947;0,0170;1,1860;-0,3340;-0,4860;-0,3294;0,3544;
11,148603;0,1605;1,1020;0,0947;0,9930;1,2760;0,0500;-0,4860;-0,3294;0,3544;
11,169120;0,1605;1,1020;0,0947;2,8070;1,4050;0,9680;-0,4860;-0,3294;0,3544;
11,188963;0,3631;1,1164;0,1514;2,8070;1,4050;0,9680;-0,4860;-0,3294;0,3544;
11,190298;0,3631;1,1164;0,1514;1,9180;1,3870;-0,0420;-0,4860;-0,3294;0,3544;
11,208907;0,3631;1,1164;0,1514;1,9180;1,3870;-0,0420;-0,6180;-0,8024;-0,1756;
11,210151;0,3631;1,1164;0,1514;0,2530;1,3020;-1,3040;-0,6180;-0,8024;-0,1756;
11,229527;0,3631;1,1164;0,1514;0,3680;1,2000;-0,4330;-0,6180;-0,8024;-0,1756;
11,251220;0,3308;1,0861;0,3159;0,3680;1,2000;-0,4330;-0,6180;-0,8024;-0,1756;
11,252110;0,3308;1,0861;0,3159;1,5840;1,1410;1,2910;-0,6180;-0,8024;-0,1756;
11,269015;0,3308;1,0861;0,3159;1,5840;1,1410;1,2910;-0,3760;-0,2984;-0,1996;
11,270766;0,3308;1,0861;0,3159;1,0110;1,0990;1,2820;-0,3760;-0,2984;-0,1996;
11,291374;0,3308;1,0861;0,3159;-0,4660;1,5710;-0,7410;-0,3760;-0,2984;-0,1996;
11,310309;0,0803;1,1594;0,0511;-0,4660;1,5710;-0,7410;-0,3760;-0,2984;-0,1996;
11,310875;0,0803;1,1594;0,0511;-0,8660;1,9020;-1,5190;-0,3760;-0,2984;-0,1996;
11,332483;0,0803;1,1594;0,0511;0,2050;1,6230;-0,4620;-0,3760;-0,2984;-0,1996;
11,350767;0,0803;1,1594;0,0511;0,2050;1,6230;-0,4620;-0,5080;-1,5754;-0,1246;
11,351660;0,0803;1,1594;0,0511;0,5320;1,2040;0,7500;-0,5080;-1,5754;-0,1246;
11,372025;0,2064;1,0602;0,3154;0,5320;1,2040;0,7500;-0,5080;-1,5754;-0,1246;
11,373575;0,2064;1,0602;0,3154;0,2620;0,9680;0,9450;-0,5080;-1,5754;-0,1246;
11,391309;0,2064;1,0602;0,3154;0,3130;1,0450;0,3500;-0,5080;-1,5754;-0,1246;
11,413669;0,2064;1,0602;0,3154;0,3130;1,0450;0,3500;-0,4970;-0,9254;-0,3176;
11,414635;0,2064;1,0602;0,3154;-0,0510;0,9340;0,1820;-0,4970;-0,9254;-0,3176;
11,431078;0,1106;1,0576;0,2651;-0,0510;0,9340;0,1820;-0,4970;-0,9254;-0,3176;
11,432767;0,1106;1,0576;0,2651;-0,6390;0,9740;0,2860;-0,4970;-0,9254;-0,3176;
11,454541;0,1106;1,0576;0,2651;-1,1600;0,9590;0,9680;-0,4970;-0,9254;-0,3176;
11,472829;0,1106;1,0576;0,2651;-1,1600;0,9590;0,9680;-0,3120;-1,0934;-0,3346;
11,474382;0,1106;1,0576;0,2651;-1,3490;1,0200;1,3400;-0,3120;-1,0934;-0,3346;
11,494391;0,0308;1,0753;0,3515;-1,3490;1,0200;1,3400;-0,3120;-1,0934;-0,3346;
11,495396;0,0308;1,0753;0,3515;-1,3750;1,1690;1,0300;-0,3120;-1,0934;-0,3346;
11,512759;0,0308;1,0753;0,3515;-1,4040;1,2850;0,2200;-0,3120;-1,0934;-0,3346;
11,535882;0,0308;1,0753;0,3515;-1,4040;1,2850;0,2200;-0,2020;-1,1834;-0,1826;
11,537086;0,0308;1,0753;0,3515;-1,2360;1,3380;-0,5060;-0,2020;-1,1834;-0,1826;
11,552738;0,0720;1,0979;0,2450;-1,2360;1,3380;-0,5060;-0,2020;-1,1834;-0,1826;
11,553919;0,0720;1,0979;0,2450;-0,9570;1,3650;0,0640;-0,2020;-1,1834;-0,1826;
11,576688;0,0720;1,0979;0,2450;-0,9400;1,1920;1,2200;-0,2020;-1,1834;-0,1826;
11,593824;0,0720;1,0979;0,2450;-1,1040;0,9550;1,6020;-0,2020;-1,1834;-0,1826;
11,618836;0,0480;1,0656;0,3198;-1,1040;0,9550;1,6020;-0,2020;-1,1834;-0,1826;
11,620226;0,0480;1,0656;0,3198;-1,1040;0,9550;1,6020;0,2010;-0,9324;-0,0806;
11,620981;0,0480;1,0656;0,3198;-1,0960;1,0330;0,8130;0,2010;-0,9324;-0,0806;
11,635331;0,0480;1,0656;0,3198;-1,0150;1,1450;-0,3240;0,2010;-0,9324;-0,0806;
11,657711;0,0480;1,0656;0,3198;-0,6450;1,0580;-0,2160;0,2010;-0,9324;-0,0806;
11,676352;0,1139;1,0624;0,2976;-0,6450;1,0580;-0,2160;0,2010;-0,9324;-0,0806;
11,676961;0,1139;1,0624;0,2976;-0,6450;1,0580;-0,2160;0,0650;-0,9974;-0,1366;
11,677321;0,1139;1,0624;0,2976;-0,4830;0,9830;0,7060;0,0650;-0,9974;-0,1366;
11,699911;0,1139;1,0624;0,2976;-0,9600;0,9300;1,0790;0,0650;-0,9974;-0,1366;
11,716646;0,1139;1,0624;0,2976;-1,3230;0,8080;0,5360;0,0650;-0,9974;-0,1366;
11,738950;0,0472;1,0287;0,1866;-1,3230;0,8080;0,5360;0,0650;-0,9974;-0,1366;
11,740252;0,0472;1,0287;0,1866;-1,3230;0,8080;0,5360;0,2690;-0,9543;0,0064;
11,740836;0,0472;1,0287;0,1866;-1,0190;0,6040;-0,2350;0,2690;-0,9543;0,0064;
11,756477;0,0472;1,0287;0,1866;-0,3380;0,6530;-0,5890;0,2690;-0,9543;0,0064;
11,778733;0,0472;1,0287;0,1866;-0,2560;0,5420;0,3040;0,2690;-0,9543;0,0064;
11,797802;0,0941;1,0101;0,3264;-0,2560;0,5420;0,3040;0,2690;-0,9543;0,0064;
11,799223;0,0941;1,0101;0,3264;-0,2560;0,5420;0,3040;0,1310;-0,4763;-0,0856;
11,799897;0,0941;1,0101;0,3264;-0,5600;0,4110;1,1400;0,1310;-0,4763;-0,0856;
11,819377;0,0941;1,0101;0,3264;-0,6810;0,2810;0,6720;0,1310;-0,4763;-0,0856;
11,838476;0,0941;1,0101;0,3264;-0,8820;0,3990;0,0550;0,1310;-0,4763;-0,0856;
11,861426;0,0215;1,0334;0,2058;-0,8820;0,3990;0,0550;0,1310;-0,4763;-0,0856;
11,863225;0,0215;1,0334;0,2058;-1,0610;0,5990;0,0340;0,1310;-0,4763;-0,0856;
11,877721;0,0215;1,0334;0,2058;-1,0610;0,5990;0,0340;0,0500;-0,5993;-0,0576;
11,878365;0,0215;1,0334;0,2058;-0,8170;0,6510;-0,1130;0,0500;-0,5993;-0,0576;
11,901598;0,0215;1,0334;0,2058;-0,1320;0,6260;-0,3180;0,0500;-0,5993;-0,0576;
11,919730;0,1344;1,0485;0,1942;-0,1320;0,6260;-0,3180;0,0500;-0,5993;-0,0576;
11,921262;0,1344;1,0485;0,1942;0,1060;0,7180;0,0210;0,0500;-0,5993;-0,0576;
11,941673;0,1344;1,0485;0,1942;0,1060;0,7180;0,0210;-0,1100;-0,4133;-0,2376;
11,943402;0,1344;1,0485;0,1942;-0,3470;0,7570;0,3880;-0,1100;-0,4133;-0,2376;
11,959844;0,1344;1,0485;0,1942;-0,6210;0,7400;0,3570;-0,1100;-0,4133;-0,2376;
11,983034;0,0682;1,0555;0,2262;-0,6210;0,7400;0,3570;-0,1100;-0,4133;-0,2376;
11,984214;0,0682;1,0555;0,2262;-0,3340;0,7800;0,2480;-0,1100;-0,4133;-0,2376;
11,999548;0,0682;1,0555;0,2262;-0,3340;0,7800;0,2480;-0,0960;-0,3723;-0,1696;
12,000685;0,0682;1,0555;0,2262;-0,3250;0,5420;0,6150;-0,0960;-0,3723;-0,1696;
12,023353;0,0682;1,0555;0,2262;-0,4610;0,3570;0,8060;-0,0960;-0,3723;-0,1696;
12,041479;0,0401;1,0064;0,2783;-0,4610;0,3570;0,8060;-0,0960;-0,3723;-0,1696;
12,042679;0,0401;1,0064;0,2783;-0,4690;0,3200;0,6200;-0,0960;-0,3723;-0,1696;
12,063251;0,0401;1,0064;0,2783;-0,4690;0,3200;0,6200;0,1220;-0,1023;-0,0096;
12,064853;0,0401;1,0064;0,2783;-0,3050;0,3380;0,6600;0,1220;-0,1023;-0,0096;
12,082371;0,0401;1,0064;0,2783;-0,3240;0,2110;0,3290;0,1220;-0,1023;-0,0096;
12,105030;0,0360;1,0010;0,2120;-0,3240;0,2110;0,3290;0,1220;-0,1023;-0,0096;
12,106275;0,0360;1,0010;0,2120;-0,4460;0,2540;-0,0050;0,1220;-0,1023;-0,0096;
12,121886;0,0360;1,0010;0,2120;-0,4220;0,2040;0,1330;0,1220;-0,1023;-0,0096;
12,145365;0,0360;1,0010;0,2120;-0,4220;0,2040;0,1330;0,2400;-0,2723;0,1514;
12,146276;0,0360;1,0010;0,2120;0,0510;0,1450;0,1750;0,2400;-0,2723;0,1514;
12,163824;0,1370;0,9837;0,1742;0,0510;0,1450;0,1750;0,2400;-0,2723;0,1514;
12,165339;0,1370;0,9837;0,1742;0,4390;0,0560;-0,2270;0,2400;-0,2723;0,1514;
12,186750;0,1370;0,9837;0,1742;0,2960;0,1150;-0,5990;0,2400;-0,2723;0,1514;
12,204666;0,1370;0,9837;0,1742;0,2960;0,1150;-0,5990;0,0730;-0,0064;0,0384;
12,205676;0,1370;0,9837;0,1742;0,0170;0,3020;-0,0350;0,0730;-0,0064;0,0384;
12,227122;0,0965;0,9984;0,2807;0,0170;0,3020;-0,0350;0,0730;-0,0064;0,0384;
12,228384;0,0965;0,9984;0,2807;-0,0040;0,1980;0,8720;0,0730;-0,0064;0,0384;
12,244266;0,0965;0,9984;0,2807;0,0950;0,0360;0,8420;0,0730;-0,0064;0,0384;
12,267254;0,0965;0,9984;0,2807;0,0950;0,0360;0,8420;0,2620;0,1456;0,0294;
12,268818;0,0965;0,9984;0,2807;-0,2740;-0,0160;0,0590;0,2620;0,1456;0,0294;
12,284991;0,0387;1,0040;0,0957;-0,2740;-0,0160;0,0590;0,2620;0,1456;0,0294;
12,285905;0,0387;1,0040;0,0957;-0,5330;0,2200;-0,7910;0,2620;0,1456;0,0294;
12,307341;0,0387;1,0040;0,0957;-0,0670;0,4920;-1,0240;0,2620;0,1456;0,0294;
12,326068;0,0387;1,0040;0,0957;-0,0670;0,4920;-1,0240;0,2870;-0,4914;0,1284;
12,326661;0,0387;1,0040;0,0957;0,1500;0,5730;0,2610;0,2870;-0,4914;0,1284;
12,348914;0,1158;1,0006;0,3294;0,1500;0,5730;0,2610;0,2870;-0,4914;0,1284;
12,349978;0,1158;1,0006;0,3294;0,1000;0,1690;1,6310;0,2870;-0,4914;0,1284;
12,365669;0,1158;1,0006;0,3294;0,4750;-0,3890;1,4750;0,2870;-0,4914;0,1284;
12,389246;0,1158;1,0006;0,3294;0,6470;-0,8150;-0,0070;0,2870;-0,4914;0,1284;
12,407504;0,1586;0,9299;-0,0286;0,6470;-0,8150;-0,0070;0,2870;-0,4914;0,1284;
12,408841;0,1586;0,9299;-0,0286;0,6470;-0,8150;-0,0070;0,4870;0,2216;0,0244;
12,409776;0,1586;0,9299;-0,0286;0,4980;-0,5540;-1,5430;0,4870;0,2216;0,0244;
12,428808;0,1586;0,9299;-0,0286;0,5850;-0,2780;-0,0160;0,4870;0,2216;0,0244;
12,447637;0,1586;0,9299;-0,0286;0,6530;-0,7970;1,2050;0,4870;0,2216;0,0244;
12,470815;0,1434;0,8847;0,1476;0,6530;-0,7970;1,2050;0,4870;0,2216;0,0244;
12,472134;0,1434;0,8847;0,1476;0,6530;-0,7970;1,2050;0,5500;0,1226;-0,2196;
12,472747;0,1434;0,8847;0,1476;0,4240;-1,0440;0,4540;0,5500;0,1226;-0,2196;
12,488189;0,1434;0,8847;0,1476;0,1150;-0,9620;-0,4330;0,5500;0,1226;-0,2196;
12,510833;0,1434;0,8847;0,1476;-0,0950;-0,9450;-0,9280;0,5500;0,1226;-0,2196;
12,528779;0,0836;0,8950;0,0465;-0,0950;-0,9450;-0,9280;0,5500;0,1226;-0,2196;
12,529520;0,0836;0,8950;0,0465;-0,0950;-0,9450;-0,9280;0,4010;-0,1274;-0,1006;
12,529829;0,0836;0,8950;0,0465;-0,0610;-0,9800;-0,2960;0,4010;-0,1274;-0,1006;
12,550910;0,0836;0,8950;0,0465;0,1430;-1,0920;0,6390;0,4010;-0,1274;-0,1006;
12,570520;0,0836;0,8950;0,0465;0,2100;-1,2610;0,2970;0,4010;-0,1274;-0,1006;
12,592438;0,0894;0,8503;-0,0366;0,2100;-1,2610;0,2970;0,4010;-0,1274;-0,1006;
12,593417;0,0894;0,8503;-0,0366;0,2100;-1,2610;0,2970;0,4030;0,0176;-0,1036;
12,594084;0,0894;0,8503;-0,0366;0,0200;-1,4330;-0,8810;0,4030;0,0176;-0,1036;
12,609717;0,0894;0,8503;-0,0366;-0,0320;-1,4240;-1,3200;0,4030;0,0176;-0,1036;
12,633330;0,0894;0,8503;-0,0366;0,0670;-1,1530;-0,8090;0,4030;0,0176;-0,1036;
12,652127;0,1021;0,9094;0,0424;0,0670;-1,1530;-0,8090;0,4030;0,0176;-0,1036;
12,653132;0,1021;0,9094;0,0424;0,1430;-0,8530;0,0060;0,4030;0,0176;-0,1036;
12,672462;0,1021;0,9094;0,0424;0,1430;-0,8530;0,0060;0,1620;-0,1114;0,0024;
12,673692;0,1021;0,9094;0,0424;0,3240;-0,8640;0,1590;0,1620;-0,1114;0,0024;
12,692493;0,1021;0,9094;0,0424;0,5930;-0,8330;-0,3590;0,1620;-0,1114;0,0024;
12,713442;0,1400;0,9472;-0,0596;0,5930;-0,8330;-0,3590;0,1620;-0,1114;0,0024;
12,714677;0,1400;0,9472;-0,0596;0,4190;-0,4800;-0,9070;0,1620;-0,1114;0,0024;
12,732273;0,1400;0,9472;-0,0596;0,4190;-0,4800;-0,9070;-0,1990;0,0917;0,0114;
12,734336;0,1400;0,9472;-0,0596;0,0570;-0,2620;-0,7100;-0,1990;0,0917;0,0114;
12,754010;0,1400;0,9472;-0,0596;0,3340;-0,1880;-0,0310;-0,1990;0,0917;0,0114;
12,773548;0,1640;0,9868;0,0679;0,3340;-0,1880;-0,0310;-0,1990;0,0917;0,0114;
12,774661;0,1640;0,9868;0,0679;0,5990;-0,0770;0,2610;-0,1990;0,0917;0,0114;
12,793833;0,1640;0,9868;0,0679;0,5990;-0,0770;0,2610;-0,1260;0,0687;0,0044;
12,795159;0,1640;0,9868;0,0679;0,4880;0,1140;0,2060;-0,1260;0,0687;0,0044;
12,814227;0,1640;0,9868;0,0679;0,3280;0,1180;0,1700;-0,1260;0,0687;0,0044;
12,835806;0,1402;0,9957;0,0547;0,3280;0,1180;0,1700;-0,1260;0,0687;0,0044;
12,837089;0,1402;0,9957;0,0547;0,3170;0,0120;0,0560;-0,1260;0,0687;0,0044;
12,854078;0,1402;0,9957;0,0547;0,3170;0,0120;0,0560;-0,1170;0,0097;0,0484;
12,855531;0,1402;0,9957;0,0547;0,3140;0,0560;-0,3000;-0,1170;0,0097;0,0484;
12,876616;0,1402;0,9957;0,0547;0,2690;0,1550;-0,3810;-0,1170;0,0097;0,0484;
12,895278;0,1681;1,0077;0,0693;0,2690;0,1550;-0,3810;-0,1170;0,0097;0,0484;
12,895689;0,1681;1,0077;0,0693;0,4830;0,1480;0,1630;-0,1170;0,0097;0,0484;
12,917930;0,1681;1,0077;0,0693;0,6540;0,1690;0,3100;-0,1170;0,0097;0,0484;
12,938462;0,1681;1,0077;0,0693;0,6540;0,1690;0,3100;-0,0020;-0,0103;-0,0526;
12,940204;0,1681;1,0077;0,0693;0,4420;0,1850;-0,2680;-0,0020;-0,0103;-0,0526;
12,956494;0,1307;1,0106;-0,0046;0,4420;0,1850;-0,2680;-0,0020;-0,0103;-0,0526;
12,957797;0,1307;1,0106;-0,0046;0,0700;0,1820;-0,5340;-0,0020;-0,0103;-0,0526;
12,977039;0,1307;1,0106;-0,0046;0,0760;0,1420;-0,0320;-0,0020;-0,0103;-0,0526;
12,998376;0,1307;1,0106;-0,0046;0,0760;0,1420;-0,0320;-0,0770;-0,0513;-0,0426;
12,999727;0,1307;1,0106;-0,0046;0,0670;0,1300;0,2810;-0,0770;-0,0513;-0,0426;
13,016553;0,1082;1,0118;0,0671;0,0670;0,1300;0,2810;-0,0770;-0,0513;-0,0426;
13,017866;0,1082;1,0118;0,0671;-0,1320;0,1970;0,0780;-0,0770;-0,0513;-0,0426;
13,038923;0,1082;1,0118;0,0671;-0,0310;0,2110;0,1340;-0,0770;-0,0513;-0,0426;
13,058053;0,1082;1,0118;0,0671;-0,0310;0,2110;0,1340;0,0500;-0,0993;-0,0076;
13,059387;0,1082;1,0118;0,0671;0,2610;0,0770;0,1450;0,0500;-0,0993;-0,0076;
13,078405;0,1544;1,0020;0,0378;0,2610;0,0770;0,1450;0,0500;-0,0993;-0,0076;
13,079699;0,1544;1,0020;0,0378;0,2950;0,0920;-0,1950;0,0500;-0,0993;-0,0076;
13,098758;0,1544;1,0020;0,0378;0,1000;0,2400;-0,4000;0,0500;-0,0993;-0,0076;
13,119631;0,1544;1,0020;0,0378;0,1000;0,2400;-0,4000;0,0020;0,0547;-0,0196;
13,120338;0,1544;1,0020;0,0378;0,0470;0,2280;0,1250;0,0020;0,0547;-0,0196;
13,138382;0,1295;0,9952;0,0815;0,0470;0,2280;0,1250;0,0020;0,0547;-0,0196;
13,139584;0,1295;0,9952;0,0815;0,0490;0,0380;0,2210;0,0020;0,0547;-0,0196;
13,160347;0,1295;0,9952;0,0815;-0,1020;0,0070;-0,3450;0,0020;0,0547;-0,0196;
13,179796;0,1295;0,9952;0,0815;-0,1330;0,1000;-0,3480;0,0020;0,0547;-0,0196;
13,201522;0,1265;1,0047;0,0432;-0,1330;0,1000;-0,3480;0,0020;0,0547;-0,0196;
13,203222;0,1265;1,0047;0,0432;0,0400;0,1130;-0,0820;0,0020;0,0547;-0,0196;
13,203783;0,1265;1,0047;0,0432;0,0400;0,1130;-0,0820;-0,0170;-0,0813;0,0064;
13,219679;0,1265;1,0047;0,0432;0,2270;-0,0060;0,0940;-0,0170;-0,0813;0,0064;
13,241708;0,1265;1,0047;0,0432;0,2670;-0,0580;0,2080;-0,0170;-0,0813;0,0064;
13,261440;0,1358;0,9952;0,0481;0,2670;-0,0580;0,2080;-0,0170;-0,0813;0,0064;
13,262110;0,1358;0,9952;0,0481;0,2670;-0,0580;0,2080;0,0140;0,0917;-0,0476;
13,262392;0,1358;0,9952;0,0481;0,0930;0,0350;-0,0440;0,0140;0,0917;-0,0476;
13,282656;0,1358;0,9952;0,0481;-0,0440;0,0880;-0,2450;0,0140;0,0917;-0,0476;
13,302100;0,1358;0,9952;0,0481;0,0020;0,1000;-0,2050;0,0140;0,0917;-0,0476;
13,323162;0,1258;1,0040;0,0430;0,0020;0,1000;-0,2050;0,0140;0,0917;-0,0476;
13,324910;0,1258;1,0040;0,0430;0,0020;0,1000;-0,2050;-0,0180;0,0117;-0,0296;
13,326160;0,1258;1,0040;0,0430;0,0200;0,1130;-0,0660;-0,0180;0,0117;-0,0296;
13,341612;0,1258;1,0040;0,0430;-0,1010;0,1250;0,0730;-0,0180;0,0117;-0,0296;
13,363574;0,1258;1,0040;0,0430;-0,1170;0,0700;0,1430;-0,0180;0,0117;-0,0296;
13,383689;0,1239;0,9966;0,0514;-0,1170;0,0700;0,1430;-0,0180;0,0117;-0,0296;
13,385124;0,1239;0,9966;0,0514;-0,1170;0,0700;0,1430;0,0290;-0,0623;0,0064;
13,385979;0,1239;0,9966;0,0514;0,0280;0,0430;0,0140;0,0290;-0,0623;0,0064;
13,403532;0,1239;0,9966;0,0514;0,1380;0,0700;-0,1970;0,0290;-0,0623;0,0064;
13,424274;0,1239;0,9966;0,0514;0,0910;0,0710;-0,1490;0,0290;-0,0623;0,0064;
13,445506;0,1302;0,9933;0,0628;0,0910;0,0710;-0,1490;0,0290;-0,0623;0,0064;
13,446381;0,1302;0,9933;0,0628;0,0600;0,0040;0,1290;0,0290;-0,0623;0,0064;
13,464066;0,1302;0,9933;0,0628;0,0600;0,0040;0,1290;0,0100;0,0197;-0,0186;
13,465691;0,1302;0,9933;0,0628;0,1100;0,0060;0,2740;0,0100;0,0197;-0,0186;
13,486282;0,1302;0,9933;0,0628;-0,0460;0,0040;-0,2440;0,0100;0,0197;-0,0186;
13,506399;0,1178;0,9991;0,0229;-0,0460;0,0040;-0,2440;0,0100;0,0197;-0,0186;
13,507292;0,1178;0,9991;0,0229;-0,0540;0,0570;-0,2450;0,0100;0,0197;-0,0186;
13,527386;0,1178;0,9991;0,0229;-0,0540;0,0570;-0,2450;-0,0230;0,0337;0,0024;
13,528053;0,1178;0,9991;0,0229;0,0870;0,0180;0,1820;-0,0230;0,0337;0,0024;
13,545117;0,1178;0,9991;0,0229;0,0820;0,0600;0,0030;-0,0230;0,0337;0,0024;
13,566352;0,1197;1,0071;0,0417;0,0820;0,0600;0,0030;-0,0230;0,0337;0,0024;
13,567702;0,1197;1,0071;0,0417;-0,0340;0,1400;-0,0730;-0,0230;0,0337;0,0024;
13,585614;0,1197;1,0071;0,0417;-0,0340;0,1400;-0,0730;-0,0030;-0,0333;0,0014;
13,586434;0,1197;1,0071;0,0417;-0,0930;0,0980;0,0450;-0,0030;-0,0333;0,0014;
13,607627;0,1197;1,0071;0,0417;0,0370;0,0180;0,0560;-0,0030;-0,0333;0,0014;
13,626885;0,1458;1,0001;0,0586;0,0370;0,0180;0,0560;-0,0030;-0,0333;0,0014;
13,627379;0,1458;1,0001;0,0586;0,1970;0,0740;0,0810;-0,0030;-0,0333;0,0014;
13,648937;0,1458;1,0001;0,0586;0,1970;0,0740;0,0810;0,0010;0,0337;-0,0266;
13,650969;0,1458;1,0001;0,0586;0,1990;0,1580;0,0270;0,0010;0,0337;-0,0266;
13,667076;0,1458;1,0001;0,0586;0,0780;0,1440;0,0000;0,0010;0,0337;-0,0266;
13,689099;0,1304;0,9994;0,0427;0,0780;0,1440;0,0000;0,0010;0,0337;-0,0266;
13,690353;0,1304;0,9994;0,0427;0,0410;0,0750;-0,0740;0,0010;0,0337;-0,0266;
13,710654;0,1304;0,9994;0,0427;0,0170;0,0870;-0,0760;0,0010;0,0337;-0,0266;
13,729744;0,1304;0,9994;0,0427;0,0170;0,0870;-0,0760;0,0100;-0,0413;-0,0176;
13,731362;0,1304;0,9994;0,0427;-0,0290;0,1410;-0,0300;0,0100;-0,0413;-0,0176;
13,749538;0,1232;1,0008;0,0622;-0,0290;0,1410;-0,0300;0,0100;-0,0413;-0,0176;
13,750861;0,1232;1,0008;0,0622;-0,0110;0,0860;0,1250;0,0100;-0,0413;-0,0176;
13,769225;0,1232;1,0008;0,0622;0,0920;-0,0080;0,1200;0,0100;-0,0413;-0,0176;
13,789631;0,1232;1,0008;0,0622;0,0920;-0,0080;0,1200;0,0230;0,0077;-0,0136;
13,790696;0,1232;1,0008;0,0622;0,1270;0,0600;-0,0230;0,0230;0,0077;-0,0136;
13,809614;0,1363;1,0079;0,0314;0,1270;0,0600;-0,0230;0,0230;0,0077;-0,0136;
13,810849;0,1363;1,0079;0,0314;0,1090;0,1550;-0,1580;0,0230;0,0077;-0,0136;
13,830263;0,1363;1,0079;0,0314;0,0200;0,1810;-0,2240;0,0230;0,0077;-0,0136;
13,852248;0,1363;1,0079;0,0314;0,0200;0,1810;-0,2240;-0,0330;-0,0683;-0,0236;
13,853446;0,1363;1,0079;0,0314;-0,0620;0,1520;-0,0740;-0,0330;-0,0683;-0,0236;
13,869928;0,1151;1,0087;0,0579;-0,0620;0,1520;-0,0740;-0,0330;-0,0683;-0,0236;
13,871334;0,1151;1,0087;0,0579;-0,0790;0,1510;0,1080;-0,0330;-0,0683;-0,0236;
13,892639;0,1151;1,0087;0,0579;-0,0350;0,1920;0,0510;-0,0330;-0,0683;-0,0236;
13,910786;0,1151;1,0087;0,0579;-0,0350;0,1920;0,0510;-0,0290;-0,0113;0,0034;
13,911289;0,1151;1,0087;0,0579;-0,0060;0,2600;0,0050;-0,0290;-0,0113;0,0034;
13,932754;0,1209;1,0238;0,0522;-0,0060;0,2600;0,0050;-0,0290;-0,0113;0,0034;
13,934098;0,1209;1,0238;0,0522;-0,0040;0,3010;0,0400;-0,0290;-0,0113;0,0034;
13,955177;0,1209;1,0238;0,0522;-0,0770;0,2320;0,1550;-0,0290;-0,0113;0,0034;
13,974149;0,1209;1,0238;0,0522;-0,1350;0,1090;0,2260;-0,0290;-0,0113;0,0034;
13,992523;0,1104;0,9991;0,0605;-0,1350;0,1090;0,2260;-0,0290;-0,0113;0,0034;
13,993137;0,1104;0,9991;0,0605;-0,1350;0,1090;0,2260;0,0540;-0,0253;0,0214;
13,993526;0,1104;0,9991;0,0605;-0,0910;0,0540;0,1060;0,0540;-0,0253;0,0214;
14,013984;0,1104;0,9991;0,0605;-0,0410;0,0670;-0,1680;0,0540;-0,0253;0,0214;
14,033050;0,1104;0,9991;0,0605;-0,0310;0,0660;-0,1120;0,0540;-0,0253;0,0214;
14,055500;0,1278;0,9938;0,0530;-0,0310;0,0660;-0,1120;0,0540;-0,0253;0,0214;
14,056473;0,1278;0,9938;0,0530;-0,0310;0,0660;-0,1120;0,0520;-0,0533;0,0174;
14,056959;0,1278;0,9938;0,0530;0,0550;0,0130;0,0820;0,0520;-0,0533;0,0174;
14,072771;0,1278;0,9938;0,0530;0,0490;0,0130;-0,0110;0,0520;-0,0533;0,0174;
14,095903;0,1278;0,9938;0,0530;-0,0820;0,0390;-0,1830;0,0520;-0,0533;0,0174;
14,114191;0,1092;1,0031;0,0307;-0,0820;0,0390;-0,1830;0,0520;-0,0533;0,0174;
14,115593;0,1092;1,0031;0,0307;-0,0820;0,0390;-0,1830;-0,0180;0,0257;0,0354;
14,116367;0,1092;1,0031;0,0307;-0,1190;0,0930;-0,0970;-0,0180;0,0257;0,0354;
14,135864;0,1092;1,0031;0,0307;-0,0270;0,2020;0,1370;-0,0180;0,0257;0,0354;
14,154748;0,1092;1,0031;0,0307;0,0500;0,3800;0,1050;-0,0180;0,0257;0,0354;
14,177285;0,1211;1,0497;0,0424;0,0500;0,3800;0,1050;-0,0180;0,0257;0,0354;
14,178263;0,1211;1,0497;0,0424;0,0500;0,3800;0,1050;-0,0130;-0,0633;0,0014;
14,179155;0,1211;1,0497;0,0424;0,0000;0,5570;-0,0020;-0,0130;-0,0633;0,0014;
14,194922;0,1211;1,0497;0,0424;-0,0350;0,5840;0,1390;-0,0130;-0,0633;0,0014;
14,218525;0,1211;1,0497;0,0424;0,0690;0,6390;0,1240;-0,0130;-0,0633;0,0014;
14,236074;0,1358;1,0634;0,0698;0,0690;0,6390;0,1240;-0,0130;-0,0633;0,0014;
14,237298;0,1358;1,0634;0,0698;0,1310;0,6940;0,2560;-0,0130;-0,0633;0,0014;
14,257519;0,1358;1,0634;0,0698;0,1310;0,6940;0,2560;0,1100;-0,0103;0,0054;
14,258810;0,1358;1,0634;0,0698;0,1780;0,6670;0,1850;0,1100;-0,0103;0,0054;
14,276972;0,1358;1,0634;0,0698;0,2000;0,6390;-0,1990;0,1100;-0,0103;0,0054;
14,300736;0,1378;1,0521;-0,0012;0,2000;0,6390;-0,1990;0,1100;-0,0103;0,0054;
14,302138;0,1378;1,0521;-0,0012;0,1450;0,5830;-0,3330;0,1100;-0,0103;0,0054;
14,316525;0,1378;1,0521;-0,0012;0,1450;0,5830;-0,3330;0,0500;0,0007;-0,0356;
14,317891;0,1378;1,0521;-0,0012;0,0970;0,7170;-0,3230;0,0500;0,0007;-0,0356;
14,339717;0,1378;1,0521;-0,0012;-0,0320;1,1370;-0,2090;0,0500;0,0007;-0,0356;
14,357866;0,0982;1,1469;0,0465;-0,0320;1,1370;-0,2090;0,0500;0,0007;-0,0356;
14,359633;0,0982;1,1469;0,0465;-0,1920;1,5010;0,1660;0,0500;0,0007;-0,0356;
14,379500;0,0982;1,1469;0,0465;-0,1920;1,5010;0,1660;0,0700;-0,1853;-0,0196;
14,381001;0,0982;1,1469;0,0465;-0,0600;1,7300;0,1990;0,0700;-0,1853;-0,0196;
14,398651;0,0982;1,1469;0,0465;0,0780;2,1240;-0,0570;0,0700;-0,1853;-0,0196;
14,421273;0,1026;1,2628;0,0378;0,0780;2,1240;-0,0570;0,0700;-0,1853;-0,0196;
14,422827;0,1026;1,2628;0,0378;-0,1190;2,6270;0,1140;0,0700;-0,1853;-0,0196;
14,437770;0,1026;1,2628;0,0378;-0,1190;2,6270;0,1140;0,2450;-0,4103;-0,0726;
14,439031;0,1026;1,2628;0,0378;-0,3400;2,8290;1,3560;0,2450;-0,4103;-0,0726;
14,461727;0,1026;1,2628;0,0378;-0,4890;2,4990;1,8810;0,2450;-0,4103;-0,0726;
14,478431;0,0396;1,2083;0,1077;-0,4890;2,4990;1,8810;0,2450;-0,4103;-0,0726;
14,478942;0,0396;1,2083;0,1077;-0,6930;2,0880;1,0140;0,2450;-0,4103;-0,0726;
14,502056;0,0396;1,2083;0,1077;-0,9840;1,8150;-0,3450;0,2450;-0,4103;-0,0726;
14,520057;0,0396;1,2083;0,1077;-0,9840;1,8150;-0,3450;0,4390;0,1307;-0,0226;
14,520814;0,0396;1,2083;0,1077;-1,0750;1,6110;-1,0280;0,4390;0,1307;-0,0226;
14,541661;-0,0068;1,1247;-0,0885;-1,0750;1,6110;-1,0280;0,4390;0,1307;-0,0226;
14,543566;-0,0068;1,1247;-0,0885;-1,1050;1,2700;-0,6500;0,4390;0,1307;-0,0226;
14,560629;-0,0068;1,1247;-0,0885;-1,2880;0,8740;0,0310;0,4390;0,1307;-0,0226;
14,583553;-0,0068;1,1247;-0,0885;-1,2880;0,8740;0,0310;0,3240;0,1517;-0,1056;
14,585092;-0,0068;1,1247;-0,0885;-1,3490;0,6010;0,5380;0,3240;0,1517;-0,1056;
14,601055;-0,0428;1,0443;-0,0007;-1,3490;0,6010;0,5380;0,3240;0,1517;-0,1056;
14,602440;-0,0428;1,0443;-0,0007;-1,3980;0,4800;0,3890;0,3240;0,1517;-0,1056;
14,624247;-0,0428;1,0443;-0,0007;-1,4710;0,4950;-0,0680;0,3240;0,1517;-0,1056;
14,643010;-0,0428;1,0443;-0,0007;-1,4710;0,4950;-0,0680;0,4230;0,0667;-0,1566;
14,643558;-0,0428;1,0443;-0,0007;-1,6330;0,4960;0,1760;0,4230;0,0667;-0,1566;
14,664318;-0,0662;1,0184;0,0368;-1,6330;0,4960;0,1760;0,4230;0,0667;-0,1566;
14,666340;-0,0662;1,0184;0,0368;-1,5470;0,2270;1,0050;0,4230;0,0667;-0,1566;
14,682875;-0,0662;1,0184;0,0368;-1,3780;-0,0650;1,4210;0,4230;0,0667;-0,1566;
14,705575;-0,0662;1,0184;0,0368;-1,3780;-0,0650;1,4210;0,8430;0,4477;-0,2076;
14,707554;-0,0662;1,0184;0,0368;-1,2930;-0,1360;0,8600;0,8430;0,4477;-0,2076;
14,724251;-0,0466;0,9654;-0,1324;-1,2930;-0,1360;0,8600;0,8430;0,4477;-0,2076;
14,725733;-0,0466;0,9654;-0,1324;-1,1630;-0,2640;-0,1810;0,8430;0,4477;-0,2076;
14,746683;-0,0466;0,9654;-0,1324;-1,1440;-0,6350;-0,1100;0,8430;0,4477;-0,2076;
14,764879;-0,0466;0,9654;-0,1324;-1,0940;-1,0890;0,9770;0,8430;0,4477;-0,2076;
14,787062;-0,0437;0,8515;0,0049;-1,0940;-1,0890;0,9770;0,8430;0,4477;-0,2076;
14,788399;-0,0437;0,8515;0,0049;-1,0940;-1,0890;0,9770;0,7150;0,4847;-0,3956;
14,789137;-0,0437;0,8515;0,0049;-0,8670;-1,3590;1,4430;0,7150;0,4847;-0,3956;
14,803890;-0,0437;0,8515;0,0049;-0,7400;-1,4590;1,2000;0,7150;0,4847;-0,3956;
14,827377;-0,0437;0,8515;0,0049;-0,5670;-1,6790;0,4900;0,7150;0,4847;-0,3956;
14,844771;-0,0200;0,7943;-0,2048;-0,5670;-1,6790;0,4900;0,7150;0,4847;-0,3956;
14,845535;-0,0200;0,7943;-0,2048;-0,5670;-1,6790;0,4900;0,6490;1,0697;-0,4616;
14,846384;-0,0200;0,7943;-0,2048;-0,4760;-1,8470;-0,1440;0,6490;1,0697;-0,4616;
14,869194;-0,0200;0,7943;-0,2048;-0,6660;-2,0250;-0,0170;0,6490;1,0697;-0,4616;
14,886932;-0,0200;0,7943;-0,2048;-0,7480;-2,1400;0,8670;0,6490;1,0697;-0,4616;
14,908874;-0,0464;0,7620;-0,0457;-0,7480;-2,1400;0,8670;0,6490;1,0697;-0,4616;
14,910393;-0,0464;0,7620;-0,0457;-0,7480;-2,1400;0,8670;0,3670;1,0837;-0,4586;
14,911534;-0,0464;0,7620;-0,0457;-0,5760;-2,1300;1,5890;0,3670;1,0837;-0,4586;
14,925763;-0,0464;0,7620;-0,0457;-0,1820;-2,1650;1,6790;0,3670;1,0837;-0,4586;
14,949565;-0,0464;0,7620;-0,0457;0,2770;-2,2090;1,2990;0,3670;1,0837;-0,4586;
14,968193;0,0562;0,7386;-0,1877;0,2770;-2,2090;1,2990;0,3670;1,0837;-0,4586;
14,969166;0,0562;0,7386;-0,1877;0,2770;-2,2090;1,2990;0,3920;1,2247;-0,5876;
14,970187;0,0562;0,7386;-0,1877;0,5430;-2,2940;0,4880;0,3920;1,2247;-0,5876;
14,988991;0,0562;0,7386;-0,1877;0,3270;-2,1980;-0,1510;0,3920;1,2247;-0,5876;
15,008029;0,0562;0,7386;-0,1877;0,1330;-1,9370;0,5220;0,3920;1,2247;-0,5876;
15,030933;0,0596;0,8209;-0,1312;0,1330;-1,9370;0,5220;0,3920;1,2247;-0,5876;
15,032358;0,0596;0,8209;-0,1312;0,7230;-1,4750;1,1020;0,3920;1,2247;-0,5876;
15,047573;0,0596;0,8209;-0,1312;0,7230;-1,4750;1,1020;0,0530;1,1977;-0,5406;
15,049248;0,0596;0,8209;-0,1312;1,2600;-1,2520;1,3920;0,0530;1,1977;-0,5406;
15,071112;0,0596;0,8209;-0,1312;1,2520;-1,5370;1,6330;0,0530;1,1977;-0,5406;
15,089924;0,1029;0,7872;-0,1432;1,2520;-1,5370;1,6330;0,0530;1,1977;-0,5406;
15,091402;0,1029;0,7872;-0,1432;1,2980;-1,7660;1,1070;0,0530;1,1977;-0,5406;
15,110824;0,1029;0,7872;-0,1432;1,2980;-1,7660;1,1070;0,0520;1,2787;-0,6556;
15,111776;0,1029;0,7872;-0,1432;1,3830;-1,6890;-0,0380;0,0520;1,2787;-0,6556;
15,129900;0,1029;0,7872;-0,1432;1,2480;-1,4620;-0,1870;0,0520;1,2787;-0,6556;
15,152558;0,0558;0,8006;-0,1826;1,2480;-1,4620;-0,1870;0,0520;1,2787;-0,6556;
15,153757;0,0558;0,8006;-0,1826;1,0270;-1,6320;0,6870;0,0520;1,2787;-0,6556;
15,170545;0,0558;0,8006;-0,1826;1,0270;-1,6320;0,6870;-0,0510;1,0517;-0,4616;
15,172172;0,0558;0,8006;-0,1826;0,9750;-1,7540;1,0600;-0,0510;1,0517;-0,4616;
15,192410;0,0558;0,8006;-0,1826;1,5950;-1,5490;0,4010;-0,0510;1,0517;-0,4616;
15,211791;0,0929;0,7904;-0,2773;1,5950;-1,5490;0,4010;-0,0510;1,0517;-0,4616;
15,212265;0,0929;0,7904;-0,2773;1,3700;-1,7440;-0,2470;-0,0510;1,0517;-0,4616;
15,233448;0,0929;0,7904;-0,2773;1,3700;-1,7440;-0,2470;-0,9220;0,8867;-0,4046;
15,235162;0,0929;0,7904;-0,2773;0,6950;-1,8690;-0,4540;-0,9220;0,8867;-0,4046;
15,251697;0,0929;0,7904;-0,2773;0,5510;-1,2570;-0,5710;-0,9220;0,8867;-0,4046;
15,274121;0,0536;0,8940;-0,1840;0,5510;-1,2570;-0,5710;-0,9220;0,8867;-0,4046;
15,275817;0,0536;0,8940;-0,1840;0,9850;-0,8440;0,1380;-0,9220;0,8867;-0,4046;
15,293050;0,0536;0,8940;-0,1840;1,2970;-1,0050;1,0150;-0,9220;0,8867;-0,4046;
15,314745;0,0536;0,8940;-0,1840;1,2970;-1,0050;1,0150;-0,9400;0,9887;0,0004;
15,316444;0,0536;0,8940;-0,1840;0,7310;-1,1460;0,7030;-0,9400;0,9887;0,0004;
15,334015;0,0485;0,8877;-0,1007;0,7310;-1,1460;0,7030;-0,9400;0,9887;0,0004;
15,334966;0,0485;0,8877;-0,1007;0,8360;-1,0120;0,3980;-0,9400;0,9887;0,0004;
15,355247;0,0485;0,8877;-0,1007;1,5340;-0,8450;1,2080;-0,9400;0,9887;0,0004;
15,374844;0,0485;0,8877;-0,1007;1,5340;-0,8450;1,2080;-0,6660;0,6247;0,0554;
15,376324;0,0485;0,8877;-0,1007;1,4530;-0,3850;1,5370;-0,6660;0,6247;0,0554;
15,394992;0,1337;0,9961;0,0505;1,4530;-0,3850;1,5370;-0,6660;0,6247;0,0554;
15,396790;0,1337;0,9961;0,0505;1,5880;0,0000;1,4740;-0,6660;0,6247;0,0554;
15,415145;0,1337;0,9961;0,0505;1,8770;-0,2920;1,4900;-0,6660;0,6247;0,0554;
15,436352;0,1337;0,9961;0,0505;1,8770;-0,2920;1,4900;-0,2750;0,4807;0,1004;
15,437511;0,1337;0,9961;0,0505;1,1580;-0,6510;0,3170;-0,2750;0,4807;0,1004;
15,454773;0,1109;0,9356;-0,1291;1,1580;-0,6510;0,3170;-0,2750;0,4807;0,1004;
15,456159;0,1109;0,9356;-0,1291;1,1730;-0,6010;-0,3890;-0,2750;0,4807;0,1004;
15,478055;0,1109;0,9356;-0,1291;2,4440;-0,4970;0,9370;-0,2750;0,4807;0,1004;
15,495936;0,1109;0,9356;-0,1291;2,4440;-0,4970;0,9370;-0,2190;0,5137;-0,1186;
15,496444;0,1109;0,9356;-0,1291;1,8800;-0,6780;1,2720;-0,2190;0,5137;-0,1186;
15,516405;0,0345;0,9376;-0,1117;1,8800;-0,6780;1,2720;-0,2190;0,5137;-0,1186;
15,517617;0,0345;0,9376;-0,1117;0,4360;-0,6000;-0,3840;-0,2190;0,5137;-0,1186;
15,536711;0,0345;0,9376;-0,1117;0,8270;-0,3200;-1,0630;-0,2190;0,5137;-0,1186;
15,557856;0,0345;0,9376;-0,1117;1,1550;-0,3140;-0,8660;-0,2190;0,5137;-0,1186;
15,577848;0,0818;0,9873;-0,0188;1,1550;-0,3140;-0,8660;-0,2190;0,5137;-0,1186;
15,579813;0,0818;0,9873;-0,0188;1,1550;-0,3140;-0,8660;-0,8080;0,2687;0,4074;
15,580979;0,0818;0,9873;-0,0188;0,6460;-0,1290;0,1410;-0,8080;0,2687;0,4074;
15,598060;0,0818;0,9873;-0,0188;1,9840;0,1810;0,7620;-0,8080;0,2687;0,4074;
15,618657;0,0818;0,9873;-0,0188;3,2160;0,7250;0,2910;-0,8080;0,2687;0,4074;
15,639548;0,2015;1,0778;0,0197;3,2160;0,7250;0,2910;-0,8080;0,2687;0,4074;
15,641138;0,2015;1,0778;0,0197;3,2160;0,7250;0,2910;-0,7360;0,1787;-0,1066;
15,642072;0,2015;1,0778;0,0197;1,7480;0,7520;0,0930;-0,7360;0,1787;-0,1066;
15,659159;0,2015;1,0778;0,0197;0,3460;0,4820;0,3910;-0,7360;0,1787;-0,1066;
15,679501;0,2015;1,0778;0,0197;1,7480;0,5560;0,9270;-0,7360;0,1787;-0,1066;
15,700762;0,2844;1,0705;0,1930;1,7480;0,5560;0,9270;-0,7360;0,1787;-0,1066;
15,702422;0,2844;1,0705;0,1930;1,7480;0,5560;0,9270;-0,5320;0,1737;0,0264;
15,704167;0,2844;1,0705;0,1930;2,4810;0,6990;1,3650;-0,5320;0,1737;0,0264;
15,720600;0,2844;1,0705;0,1930;1,2530;0,7170;1,0020;-0,5320;0,1737;0,0264;
15,740497;0,2844;1,0705;0,1930;0,6500;0,4650;0,0830;-0,5320;0,1737;0,0264;
15,762355;0,2299;1,0196;0,0691;0,6500;0,4650;0,0830;-0,5320;0,1737;0,0264;
15,764389;0,2299;1,0196;0,0691;0,6500;0,4650;0,0830;-0,6570;-0,2443;0,1974;
15,765564;0,2299;1,0196;0,0691;1,7310;0,2230;-0,1300;-0,6570;-0,2443;0,1974;
15,780430;0,2299;1,0196;0,0691;2,3380;0,1260;0,6580;-0,6570;-0,2443;0,1974;
15,802374;0,2299;1,0196;0,0691;1,4340;0,2050;0,9010;-0,6570;-0,2443;0,1974;
15,821535;0,1962;1,0264;0,1702;1,4340;0,2050;0,9010;-0,6570;-0,2443;0,1974;
15,822898;0,1962;1,0264;0,1702;1,2420;0,3350;0,5220;-0,6570;-0,2443;0,1974;
15,841658;0,1962;1,0264;0,1702;1,2420;0,3350;0,5220;-0,4010;-0,0763;0,0394;
15,842765;0,1962;1,0264;0,1702;1,6080;0,5160;-0,0670;-0,4010;-0,0763;0,0394;
15,862160;0,1962;1,0264;0,1702;0,5300;0,3760;-0,6140;-0,4010;-0,0763;0,0394;
15,883840;0,0862;1,0523;0,0971;0,5300;0,3760;-0,6140;-0,4010;-0,0763;0,0394;
15,886176;0,0862;1,0523;0,0971;-0,0380;0,6350;-0,3960;-0,4010;-0,0763;0,0394;
15,902460;0,0862;1,0523;0,0971;-0,0380;0,6350;-0,3960;-0,4270;-0,7123;0,2814;
15,904328;0,0862;1,0523;0,0971;0,8160;0,9060;0,3960;-0,4270;-0,7123;0,2814;
15,924065;0,0862;1,0523;0,0971;2,1350;1,4670;0,6410;-0,4270;-0,7123;0,2814;
15,943645;0,2553;1,1716;0,1416;2,1350;1,4670;0,6410;-0,4270;-0,7123;0,2814;
15,944753;0,2553;1,1716;0,1416;1,4050;1,8590;-0,1720;-0,4270;-0,7123;0,2814;
15,963703;0,2553;1,1716;0,1416;1,4050;1,8590;-0,1720;-0,2260;-0,7443;0,0074;
15,965697;0,2553;1,1716;0,1416;0,5160;1,9490;-0,7530;-0,2260;-0,7443;0,0074;
15,984722;0,2553;1,1716;0,1416;0,4090;1,8470;-0,0770;-0,2260;-0,7443;0,0074;
16,005606;0,2248;1,1497;0,2543;0,4090;1,8470;-0,0770;-0,2260;-0,7443;0,0074;
16,006783;0,2248;1,1497;0,2543;1,0150;1,6610;0,8720;-0,2260;-0,7443;0,0074;
16,024922;0,2248;1,1497;0,2543;1,0150;1,6610;0,8720;0,0150;-0,6583;-0,2046;
16,025536;0,2248;1,1497;0,2543;0,7320;1,8630;0,8980;0,0150;-0,6583;-0,2046;
16,045739;0,2248;1,1497;0,2543;-0,7520;1,9810;-0,1550;0,0150;-0,6583;-0,2046;
16,066607;-0,0097;1,1783;0,0869;-0,7520;1,9810;-0,1550;0,0150;-0,6583;-0,2046;
16,068082;-0,0097;1,1783;0,0869;-1,2660;1,9250;-0,7020;0,0150;-0,6583;-0,2046;
16,085698;-0,0097;1,1783;0,0869;-0,4120;1,5870;-0,3190;0,0150;-0,6583;-0,2046;
16,105582;-0,0097;1,1783;0,0869;-0,4120;1,5870;-0,3190;-0,0150;-1,5053;0,1074;
16,107028;-0,0097;1,1783;0,0869;0,4060;1,2360;0,2610;-0,0150;-1,5053;0,1074;
16,127013;0,2094;1,0770;0,1600;0,4060;1,2360;0,2610;-0,0150;-1,5053;0,1074;
16,127710;0,2094;1,0770;0,1600;0,6830;0,9370;0,1240;-0,0150;-1,5053;0,1074;
16,146534;0,2094;1,0770;0,1600;0,5460;0,8170;-0,4320;-0,0150;-1,5053;0,1074;
16,167948;0,2094;1,0770;0,1600;0,5460;0,8170;-0,4320;-0,2470;-0,9323;-0,1246;
16,168931;0,2094;1,0770;0,1600;0,1860;0,7520;-0,1370;-0,2470;-0,9323;-0,1246;
16,186194;0,0803;1,0507;0,2203;0,1860;0,7520;-0,1370;-0,2470;-0,9323;-0,1246;
16,187680;0,0803;1,0507;0,2203;-0,6120;0,7030;0,6690;-0,2470;-0,9323;-0,1246;
16,208460;0,0803;1,0507;0,2203;-1,3320;0,5030;1,4660;-0,2470;-0,9323;-0,1246;
16,227768;0,0803;1,0507;0,2203;-1,3320;0,5030;1,4660;0,0210;-1,1773;0,0514;
16,228291;0,0803;1,0507;0,2203;-1,1260;0,4780;1,3560;0,0210;-1,1773;0,0514;
16,248265;0,1099;1,0730;0,2005;-1,1260;0,4780;1,3560;0,0210;-1,1773;0,0514;
16,249594;0,1099;1,0730;0,2005;-0,3730;0,9270;0,4930;0,0210;-1,1773;0,0514;
16,268486;0,1099;1,0730;0,2005;-0,0970;1,0390;0,1560;0,0210;-1,1773;0,0514;
16,289674;0,1099;1,0730;0,2005;-0,0970;1,0390;0,1560;-0,1810;-0,8063;-0,0396;
16,290970;0,1099;1,0730;0,2005;-0,2670;0,8480;0,1220;-0,1810;-0,8063;-0,0396;
16,308447;0,0918;1,0585;0,1915;-0,2670;0,8480;0,1220;-0,1810;-0,8063;-0,0396;
16,309677;0,0918;1,0585;0,1915;-0,5460;0,7800;0,3770;-0,1810;-0,8063;-0,0396;
16,330331;0,0918;1,0585;0,1915;-0,7920;0,9980;0,7900;-0,1810;-0,8063;-0,0396;
16,350158;0,0918;1,0585;0,1915;-0,9250;0,9270;0,7540;-0,1810;-0,8063;-0,0396;
16,371275;0,0453;1,0423;0,1908;-0,9250;0,9270;0,7540;-0,1810;-0,8063;-0,0396;
16,373086;0,0453;1,0423;0,1908;-0,9250;0,9270;0,7540;-0,0840;-0,8793;0,0044;
16,373894;0,0453;1,0423;0,1908;-0,8570;0,6100;0,2820;-0,0840;-0,8793;0,0044;
16,389532;0,0453;1,0423;0,1908;-0,4190;0,5680;-0,0510;-0,0840;-0,8793;0,0044;
16,413080;0,0453;1,0423;0,1908;-0,0200;0,8760;0,3140;-0,0840;-0,8793;0,0044;
16,430309;0,1170;1,0835;0,2709;-0,0200;0,8760;0,3140;-0,0840;-0,8793;0,0044;
16,431931;0,1170;1,0835;0,2709;-0,0200;0,8760;0,3140;-0,2290;-0,6303;-0,1526;
16,432801;0,1170;1,0835;0,2709;-0,1310;1,0370;0,9380;-0,2290;-0,6303;-0,1526;
16,452253;0,1170;1,0835;0,2709;-0,7730;0,9800;0,7320;-0,2290;-0,6303;-0,1526;
16,471379;0,1170;1,0835;0,2709;-1,0060;0,8130;-0,1940;-0,2290;-0,6303;-0,1526;
16,493867;0,0838;1,1056;0,1003;-1,0060;0,8130;-0,1940;-0,2290;-0,6303;-0,1526;
16,494442;0,0838;1,1056;0,1003;-1,0060;0,8130;-0,1940;-0,1440;-1,0113;-0,1456;
16,494727;0,0838;1,1056;0,1003;-0,2780;1,2220;-0,6600;-0,1440;-1,0113;-0,1456;
16,510379;0,0838;1,1056;0,1003;0,1890;1,4770;-0,3450;-0,1440;-1,0113;-0,1456;
16,534146;0,0838;1,1056;0,1003;0,1490;1,2400;0,3410;-0,1440;-1,0113;-0,1456;
16,552010;0,1074;1,0991;0,3205;0,1490;1,2400;0,3410;-0,1440;-1,0113;-0,1456;
16,552855;0,1074;1,0991;0,3205;0,1490;1,2400;0,3410;-0,1970;-0,4133;-0,3466;
16,553422;0,1074;1,0991;0,3205;0,0260;1,1610;1,4000;-0,1970;-0,4133;-0,3466;
16,574253;0,1074;1,0991;0,3205;-0,1580;1,1460;2,0860;-0,1970;-0,4133;-0,3466;
16,592919;0,1074;1,0991;0,3205;-0,7830;1,0830;2,3790;-0,1970;-0,4133;-0,3466;
16,615918;-0,0584;1,0634;0,3839;-0,7830;1,0830;2,3790;-0,1970;-0,4133;-0,3466;
16,617468;-0,0584;1,0634;0,3839;-1,3900;0,7950;2,0670;-0,1970;-0,4133;-0,3466;
16,632722;-0,0584;1,0634;0,3839;-1,3900;0,7950;2,0670;0,4200;-0,2823;-0,2356;
16,634704;-0,0584;1,0634;0,3839;-1,2880;0,4780;0,5040;0,4200;-0,2823;-0,2356;
16,656289;-0,0584;1,0634;0,3839;-0,8110;0,4920;-0,4950;0,4200;-0,2823;-0,2356;
16,675046;0,0169;1,0357;0,1641;-0,8110;0,4920;-0,4950;0,4200;-0,2823;-0,2356;
16,676525;0,0169;1,0357;0,1641;-0,6100;0,4820;0,1360;0,4200;-0,2823;-0,2356;
16,695722;0,0169;1,0357;0,1641;-0,6100;0,4820;0,1360;0,3090;-0,3563;-0,1176;
16,697081;0,0169;1,0357;0,1641;-0,9240;0,1850;1,1130;0,3090;-0,3563;-0,1176;
16,714995;0,0169;1,0357;0,1641;-1,0610;-0,3040;1,3470;0,3090;-0,3563;-0,1176;
16,738489;0,0012;0,9329;0,2073;-1,0610;-0,3040;1,3470;0,3090;-0,3563;-0,1176;
16,740104;0,0012;0,9329;0,2073;-0,7760;-0,5630;0,8390;0,3090;-0,3563;-0,1176;
16,754544;0,0012;0,9329;0,2073;-0,7760;-0,5630;0,8390;0,4710;-0,2453;0,0334;
16,756055;0,0012;0,9329;0,2073;-0,7220;-0,8200;0,3060;0,4710;-0,2453;0,0334;
16,778278;0,0012;0,9329;0,2073;-0,8550;-1,0730;0,0560;0,4710;-0,2453;0,0334;
16,796051;0,0022;0,8855;0,0852;-0,8550;-1,0730;0,0560;0,4710;-0,2453;0,0334;
16,796562;0,0022;0,8855;0,0852;-0,8050;-1,0480;-0,1350;0,4710;-0,2453;0,0334;
16,818177;0,0022;0,8855;0,0852;-0,8050;-1,0480;-0,1350;0,1310;-0,1763;0,0554;
16,820106;0,0022;0,8855;0,0852;-0,3260;-0,7890;0,3200;0,1310;-0,1763;0,0554;
16,836739;0,0022;0,8855;0,0852;-0,2120;-0,3790;0,4590;0,1310;-0,1763;0,0554;
16,859491;0,0166;0,9598;0,0942;-0,2120;-0,3790;0,4590;0,1310;-0,1763;0,0554;
16,860639;0,0166;0,9598;0,0942;-0,6190;-0,3310;-0,0450;0,1310;-0,1763;0,0554;
16,876613;0,0166;0,9598;0,0942;-0,5940;-0,3570;-0,4220;0,1310;-0,1763;0,0554;
16,900094;0,0166;0,9598;0,0942;-0,5940;-0,3570;-0,4220;-0,0500;-0,0853;0,1274;
16,901579;0,0166;0,9598;0,0942;-0,2800;-0,1770;-0,2000;-0,0500;-0,0853;0,1274;
16,917122;0,1018;1,0250;0,1323;-0,2800;-0,1770;-0,2000;-0,0500;-0,0853;0,1274;
16,918842;0,1018;1,0250;0,1323;0,1500;0,3190;0,2920;-0,0500;-0,0853;0,1274;
16,940584;0,1018;1,0250;0,1323;0,2000;0,4950;0,8750;-0,0500;-0,0853;0,1274;
16,959298;0,1018;1,0250;0,1323;0,2000;0,4950;0,8750;0,1920;-0,1703;-0,1036;
16,960541;0,1018;1,0250;0,1323;-0,0250;0,2610;0,3700;0,1920;-0,1703;-0,1036;
16,980145;0,0520;0,9973;0,0232;-0,0250;0,2610;0,3700;0,1920;-0,1703;-0,1036;
16,981205;0,0520;0,9973;0,0232;-0,2830;0,0320;-0,6810;0,1920;-0,1703;-0,1036;
16,999181;0,0520;0,9973;0,0232;-0,3360;0,0650;-0,7690;0,1920;-0,1703;-0,1036;
17,021873;0,0520;0,9973;0,0232;-0,3360;0,0650;-0,7690;-0,1080;-0,2473;-0,1056;
17,023124;0,0520;0,9973;0,0232;-0,1460;0,1070;0,1090;-0,1080;-0,2473;-0,1056;
17,038807;0,0674;0,9961;0,1977;-0,1460;0,1070;0,1090;-0,1080;-0,2473;-0,1056;
17,040208;0,0674;0,9961;0,1977;-0,0400;0,0170;0,9740;-0,1080;-0,2473;-0,1056;
17,062496;0,0674;0,9961;0,1977;0,2150;-0,0820;1,2110;-0,1080;-0,2473;-0,1056;
17,080439;0,0674;0,9961;0,1977;0,2150;-0,0820;1,2110;0,1420;-0,0633;-0,2306;
17,081435;0,0674;0,9961;0,1977;0,2590;-0,0970;0,5270;0,1420;-0,0633;-0,2306;
17,102249;0,0703;0,9759;0,0414;0,2590;-0,0970;0,5270;0,1420;-0,0633;-0,2306;
17,103862;0,0703;0,9759;0,0414;0,0680;-0,1860;-0,4790;0,1420;-0,0633;-0,2306;
17,121314;0,0703;0,9759;0,0414;-0,2220;-0,1780;-0,3910;0,1420;-0,0633;-0,2306;
17,143910;0,0703;0,9759;0,0414;-0,2760;-0,3390;0,5380;0,1420;-0,0633;-0,2306;
17,161465;0,0509;0,9472;0,2296;-0,2760;-0,3390;0,5380;0,1420;-0,0633;-0,2306;
17,162362;0,0509;0,9472;0,2296;-0,2760;-0,3390;0,5380;-0,0120;-0,1063;-0,1236;
17,162845;0,0509;0,9472;0,2296;0,0180;-0,4760;1,3300;-0,0120;-0,1063;-0,1236;
17,183896;0,0509;0,9472;0,2296;0,1640;-0,5670;0,9210;-0,0120;-0,1063;-0,1236;
17,202525;0,0509;0,9472;0,2296;-0,0540;-0,4610;-0,0210;-0,0120;-0,1063;-0,1236;
17,225303;0,0555;0,9446;0,1089;-0,0540;-0,4610;-0,0210;-0,0120;-0,1063;-0,1236;
17,226475;0,0555;0,9446;0,1089;-0,0540;-0,4610;-0,0210;0,1430;-0,2073;-0,0736;
17,227111;0,0555;0,9446;0,1089;0,0980;-0,5040;0,1290;0,1430;-0,2073;-0,0736;
17,243537;0,0555;0,9446;0,1089;0,4450;-0,6800;0,3360;0,1430;-0,2073;-0,0736;
17,267841;0,0555;0,9446;0,1089;0,4420;-0,5850;-0,0180;0,1430;-0,2073;-0,0736;
17,284824;0,0701;0,9563;0,0817;0,4420;-0,5850;-0,0180;0,1430;-0,2073;-0,0736;
17,286859;0,0701;0,9563;0,0817;0,4420;-0,5850;-0,0180;0,0580;0,1027;-0,0396;
17,288069;0,0701;0,9563;0,0817;0,1770;-0,3820;-0,0950;0,0580;0,1027;-0,0396;
17,306272;0,0701;0,9563;0,0817;0,1590;-0,4330;0,6820;0,0580;0,1027;-0,0396;
17,324938;0,0701;0,9563;0,0817;0,1750;-0,6230;0,5140;0,0580;0,1027;-0,0396;
17,346929;0,0523;0,9253;0,0696;0,1750;-0,6230;0,5140;0,0580;0,1027;-0,0396;
17,348518;0,0523;0,9253;0,0696;0,1750;-0,6230;0,5140;0,2130;0,2457;0,0574;
17,349504;0,0523;0,9253;0,0696;-0,0180;-0,6960;-0,1900;0,2130;0,2457;0,0574;
17,364813;0,0523;0,9253;0,0696;-0,0040;-0,6870;-0,2810;0,2130;0,2457;0,0574;
17,386869;0,0523;0,9253;0,0696;0,2040;-0,7710;-0,2800;0,2130;0,2457;0,0574;
17,405093;0,0987;0,9097;0,0092;0,2040;-0,7710;-0,2800;0,2130;0,2457;0,0574;
17,406453;0,0987;0,9097;0,0092;0,3300;-0,8550;-0,6020;0,2130;0,2457;0,0574;
17,428613;0,0987;0,9097;0,0092;0,3300;-0,8550;-0,6020;0,0470;0,1217;0,0764;
17,429844;0,0987;0,9097;0,0092;0,1990;-0,6780;-0,5010;0,0470;0,1217;0,0764;
17,446182;0,0987;0,9097;0,0092;0,0830;-0,4850;0,1620;0,0470;0,1217;0,0764;
17,469899;0,0941;0,9512;0,1045;0,0830;-0,4850;0,1620;0,0470;0,1217;0,0764;
17,471467;0,0941;0,9512;0,1045;0,2070;-0,4410;0,3410;0,0470;0,1217;0,0764;
17,486720;0,0941;0,9512;0,1045;0,2070;-0,4410;0,3410;-0,0090;0,0137;0,0304;
17,487858;0,0941;0,9512;0,1045;0,1460;-0,3720;-0,2280;-0,0090;0,0137;0,0304;
17,509435;0,0941;0,9512;0,1045;0,0250;-0,1670;-0,3200;-0,0090;0,0137;0,0304;
17,527677;0,0818;1,0062;0,1028;0,0250;-0,1670;-0,3200;-0,0090;0,0137;0,0304;
17,528315;0,0818;1,0062;0,1028;0,0420;0,0950;0,2810;-0,0090;0,0137;0,0304;
17,549143;0,0818;1,0062;0,1028;0,0420;0,0950;0,2810;-0,0410;-0,1463;0,0074;
17,550271;0,0818;1,0062;0,1028;0,1370;0,1270;0,4390;-0,0410;-0,1463;0,0074;
17,568130;0,0818;1,0062;0,1028;0,2240;0,0880;-0,0370;-0,0410;-0,1463;0,0074;
17,591111;0,1034;1,0033;0,0507;0,2240;0,0880;-0,0370;-0,0410;-0,1463;0,0074;
17,592207;0,1034;1,0033;0,0507;0,2060;0,0750;-0,2610;-0,0410;-0,1463;0,0074;
17,608117;0,1034;1,0033;0,0507;0,2060;0,0750;-0,2610;-0,1030;0,0407;0,0074;
17,608793;0,1034;1,0033;0,0507;0,1520;0,1870;0,0510;-0,1030;0,0407;0,0074;
17,631725;0,1034;1,0033;0,0507;0,1300;0,2330;0,4780;-0,1030;0,0407;0,0074;
17,649463;0,0962;1,0066;0,1084;0,1300;0,2330;0,4780;-0,1030;0,0407;0,0074;
17,650722;0,0962;1,0066;0,1084;0,1120;0,1250;0,2080;-0,1030;0,0407;0,0074;
17,671192;0,0962;1,0066;0,1084;0,0830;0,0960;-0,2930;-0,1030;0,0407;0,0074;
17,691187;0,0962;1,0066;0,1084;0,0830;0,0960;-0,2930;-0,0580;-0,0033;-0,0136;
17,692505;0,0962;1,0066;0,1084;-0,0460;0,1480;-0,4220;-0,0580;-0,0033;-0,0136;
17,711136;0,0750;1,0069;0,0942;-0,0460;0,1480;-0,4220;-0,0580;-0,0033;-0,0136;
17,711679;0,0750;1,0069;0,0942;-0,0920;0,1220;0,0950;-0,0580;-0,0033;-0,0136;
17,732219;0,0750;1,0069;0,0942;-0,1000;0,1510;0,2300;-0,0580;-0,0033;-0,0136;
17,753361;0,0750;1,0069;0,0942;-0,1000;0,1510;0,2300;0,0070;-0,1013;0,0194;
17,754664;0,0750;1,0069;0,0942;0,0410;0,2210;0,2280;0,0070;-0,1013;0,0194;
17,771273;0,0960;1,0077;0,1148;0,0410;0,2210;0,2280;0,0070;-0,1013;0,0194;
17,772569;0,0960;1,0077;0,1148;0,1130;0,1420;0,2440;0,0070;-0,1013;0,0194;
17,793386;0,0960;1,0077;0,1148;-0,0200;0,0730;-0,0490;0,0070;-0,1013;0,0194;
17,812913;0,0960;1,0077;0,1148;-0,0200;0,0730;-0,0490;-0,0130;-0,0123;0,0044;
17,813863;0,0960;1,0077;0,1148;-0,0690;0,0170;-0,0860;-0,0130;-0,0123;0,0044;
17,833452;0,0782;0,9901;0,0813;-0,0690;0,0170;-0,0860;-0,0130;-0,0123;0,0044;
17,834478;0,0782;0,9901;0,0813;-0,0550;-0,0360;-0,0680;-0,0130;-0,0123;0,0044;
17,853375;0,0782;0,9901;0,0813;0,0070;-0,0220;0,0000;-0,0130;-0,0123;0,0044;
17,875449;0,0782;0,9901;0,0813;0,0070;-0,0220;0,0000;-0,0010;-0,0323;-0,0026;
17,877026;0,0782;0,9901;0,0813;0,0040;0,0050;0,1110;-0,0010;-0,0323;-0,0026;
17,894285;0,0874;0,9938;0,0938;0,0040;0,0050;0,1110;-0,0010;-0,0323;-0,0026;
17,895394;0,0874;0,9938;0,0938;0,0160;0,0050;0,0410;-0,0010;-0,0323;-0,0026;
17,915815;0,0874;0,9938;0,0938;0,1390;0,1010;-0,1630;-0,0010;-0,0323;-0,0026;
17,936166;0,0874;0,9938;0,0938;0,1670;0,2370;-0,2440;-0,0010;-0,0323;-0,0026;
17,956073;0,0945;1,0229;0,0781;0,1670;0,2370;-0,2440;-0,0010;-0,0323;-0,0026;
17,957617;0,0945;1,0229;0,0781;0,1670;0,2370;-0,2440;-0,0430;0,0387;-0,0066;
17,958217;0,0945;1,0229;0,0781;0,0580;0,2780;-0,0820;-0,0430;0,0387;-0,0066;
17,974546;0,0945;1,0229;0,0781;-0,0150;0,2380;0,2250;-0,0430;0,0387;-0,0066;
17,996443;0,0945;1,0229;0,0781;-0,0850;0,1970;0,2790;-0,0430;0,0387;-0,0066;
18,016141;0,0767;1,0131;0,0974;-0,0850;0,1970;0,2790;-0,0430;0,0387;-0,0066;
18,017958;0,0767;1,0131;0,0974;-0,0850;0,1970;0,2790;0,0510;-0,0033;0,0084;
18,018341;0,0767;1,0131;0,0974;-0,0790;0,1830;0,0800;0,0510;-0,0033;0,0084;
18,035966;0,0767;1,0131;0,0974;-0,0880;0,1130;-0,0550;0,0510;-0,0033;0,0084;
18,056793;0,0767;1,0131;0,0974;-0,0340;0,0440;0,0180;0,0510;-0,0033;0,0084;
18,077408;0,0994;0,9868;0,0999;-0,0340;0,0440;0,0180;0,0510;-0,0033;0,0084;
18,079004;0,0994;0,9868;0,0999;-0,0340;0,0440;0,0180;0,0900;-0,0903;0,0044;
18,079785;0,0994;0,9868;0,0999;0,1270;-0,0630;0,1190;0,0900;-0,0903;0,0044;
18,096155;0,0994;0,9868;0,0999;0,2050;-0,1320;-0,1650;0,0900;-0,0903;0,0044;
18,118461;0,0994;0,9868;0,0999;0,1310;-0,0920;-0,2790;0,0900;-0,0903;0,0044;
18,138104;0,0803;0,9930;0,0754;0,1310;-0,0920;-0,2790;0,0900;-0,0903;0,0044;
18,140053;0,0803;0,9930;0,0754;0,1310;-0,0920;-0,2790;-0,0620;0,0667;-0,0236;
18,140690;0,0803;0,9930;0,0754;-0,0720;-0,0110;-0,0680;-0,0620;0,0667;-0,0236;
18,158307;0,0803;0,9930;0,0754;-0,1380;0,0420;0,0910;-0,0620;0,0667;-0,0236;
18,178043;0,0803;0,9930;0,0754;-0,0010;0,0020;0,0730;-0,0620;0,0667;-0,0236;
18,199915;0,0920;0,9991;0,0630;-0,0010;0,0020;0,0730;-0,0620;0,0667;-0,0236;
18,200941;0,0920;0,9991;0,0630;0,0630;0,0420;-0,1970;-0,0620;0,0667;-0,0236;
18,218258;0,0920;0,9991;0,0630;0,0630;0,0420;-0,1970;-0,0650;0,0227;-0,0016;
18,219249;0,0920;0,9991;0,0630;-0,0280;0,1100;-0,1200;-0,0650;0,0227;-0,0016;
18,240559;0,0920;0,9991;0,0630;0,0360;0,0990;0,2050;-0,0650;0,0227;-0,0016;
18,259990;0,0943;1,0033;0,1167;0,0360;0,0990;0,2050;-0,0650;0,0227;-0,0016;
18,261126;0,0943;1,0033;0,1167;0,0730;0,0880;0,2650;-0,0650;0,0227;-0,0016;
18,280891;0,0943;1,0033;0,1167;0,0730;0,0880;0,2650;0,0220;-0,0013;-0,0316;
18,281457;0,0943;1,0033;0,1167;0,0100;0,1280;0,0730;0,0220;-0,0013;-0,0316;
18,300707;0,0943;1,0033;0,1167;-0,1500;0,0710;-0,0940;0,0220;-0,0013;-0,0316;
18,321644;0,0735;0,9971;0,0752;-0,1500;0,0710;-0,0940;0,0220;-0,0013;-0,0316;
18,323285;0,0735;0,9971;0,0752;-0,1030;0,0290;-0,1100;0,0220;-0,0013;-0,0316;
18,340027;0,0735;0,9971;0,0752;-0,1030;0,0290;-0,1100;-0,0130;-0,0543;0,0124;
18,341488;0,0735;0,9971;0,0752;-0,0110;0,0700;-0,0650;-0,0130;-0,0543;0,0124;
18,362187;0,0735;0,9971;0,0752;0,0770;0,1120;0,0770;-0,0130;-0,0543;0,0124;
18,381777;0,0999;1,0028;0,0901;0,0770;0,1120;0,0770;-0,0130;-0,0543;0,0124;
18,383165;0,0999;1,0028;0,0901;0,1370;0,0850;0,0200;-0,0130;-0,0543;0,0124;
18,401813;0,0999;1,0028;0,0901;0,1370;0,0850;0,0200;-0,0280;-0,0113;-0,0356;
18,402889;0,0999;1,0028;0,0901;0,1690;0,0720;-0,1090;-0,0280;-0,0113;-0,0356;
18,422411;0,0999;1,0028;0,0901;0,0760;0,1130;-0,0560;-0,0280;-0,0113;-0,0356;
18,443804;0,0759;1,0069;0,1006;0,0760;0,1130;-0,0560;-0,0280;-0,0113;-0,0356;
18,444622;0,0759;1,0069;0,1006;-0,0840;0,1260;0,1170;-0,0280;-0,0113;-0,0356;
18,462269;0,0759;1,0069;0,1006;-0,1860;0,1400;0,2220;-0,0280;-0,0113;-0,0356;
18,484806;0,0759;1,0069;0,1006;-0,1860;0,1400;0,2220;0,0310;-0,0263;0,0014;
18,486251;0,0759;1,0069;0,1006;-0,0590;0,0980;0,0480;0,0310;-0,0263;0,0014;
18,502196;0,0918;1,0062;0,0808;-0,0590;0,0980;0,0480;0,0310;-0,0263;0,0014;
18,503063;0,0918;1,0062;0,0808;0,0950;0,1120;-0,0730;0,0310;-0,0263;0,0014;
18,524773;0,0918;1,0062;0,0808;0,0130;0,1240;-0,1020;0,0310;-0,0263;0,0014;
18,544956;0,0918;1,0062;0,0808;0,0130;0,1240;-0,1020;0,0050;-0,0213;-0,0006;
18,546195;0,0918;1,0062;0,0808;0,0250;0,0690;-0,0920;0,0050;-0,0213;-0,0006;
18,566673;0,0962;0,9982;0,0668;0,0250;0,0690;-0,0920;0,0050;-0,0213;-0,0006;
18,568014;0,0962;0,9982;0,0668;0,1240;0,0410;-0,1750;0,0050;-0,0213;-0,0006;
18,586307;0,0962;0,9982;0,0668;0,0790;0,0810;-0,3110;0,0050;-0,0213;-0,0006;
18,606148;0,0962;0,9982;0,0668;0,0790;0,0810;-0,3110;-0,1400;-0,0413;0,0004;
18,607447;0,0962;0,9982;0,0668;-0,0380;0,2180;-0,2190;-0,1400;-0,0413;0,0004;
18,625497;0,0843;1,0318;0,0879;-0,0380;0,2180;-0,2190;-0,1400;-0,0413;0,0004;
18,626997;0,0843;1,0318;0,0879;0,0020;0,3700;0,0130;-0,1400;-0,0413;0,0004;
18,646393;0,0843;1,0318;0,0879;0,1160;0,5900;0,0460;-0,1400;-0,0413;0,0004;
18,665996;0,0843;1,0318;0,0879;0,1160;0,5900;0,0460;-0,1060;-0,2063;-0,0356;
18,667591;0,0843;1,0318;0,0879;0,2290;0,9600;0,0450;-0,1060;-0,2063;-0,0356;
18,688129;0,0933;1,1416;0,0886;0,2290;0,9600;0,0450;-0,1060;-0,2063;-0,0356;
18,689622;0,0933;1,1416;0,0886;0,0850;1,4500;-0,0280;-0,1060;-0,2063;-0,0356;
18,706158;0,0933;1,1416;0,0886;0,1520;1,6150;0,2710;-0,1060;-0,2063;-0,0356;
18,727918;0,0933;1,1416;0,0886;0,2120;1,6840;0,2880;-0,1060;-0,2063;-0,0356;
18,747480;0,0955;1,1853;0,1152;0,2120;1,6840;0,2880;-0,1060;-0,2063;-0,0356;
18,748891;0,0955;1,1853;0,1152;0,2120;1,6840;0,2880;0,0620;-0,2683;-0,0196;
18,749438;0,0955;1,1853;0,1152;0,0930;1,8730;0,2330;0,0620;-0,2683;-0,0196;
18,767396;0,0955;1,1853;0,1152;-0,0260;2,1850;0,3010;0,0620;-0,2683;-0,0196;
18,788102;0,0955;1,1853;0,1152;-0,2700;2,3740;0,0420;0,0620;-0,2683;-0,0196;
18,809424;0,0436;1,2154;0,0607;-0,2700;2,3740;0,0420;0,0620;-0,2683;-0,0196;
18,810983;0,0436;1,2154;0,0607;-0,2700;2,3740;0,0420;0,0170;-0,2463;-0,0126;
18,811686;0,0436;1,2154;0,0607;-0,4080;2,1690;-0,2620;0,0170;-0,2463;-0,0126;
18,827566;0,0436;1,2154;0,0607;-0,5890;1,8980;-0,4760;0,0170;-0,2463;-0,0126;
18,851250;0,0436;1,2154;0,0607;-0,8420;1,9690;0,4150;0,0170;-0,2463;-0,0126;
18,869581;0,0255;1,1958;0,3063;-0,8420;1,9690;0,4150;0,0170;-0,2463;-0,0126;
18,870670;0,0255;1,1958;0,3063;-0,8420;1,9690;0,4150;0,2500;-0,4523;-0,0186;
18,871257;0,0255;1,1958;0,3063;-0,6040;1,9800;2,1450;0,2500;-0,4523;-0,0186;
18,890718;0,0255;1,1958;0,3063;-0,3030;1,7140;2,0350;0,2500;-0,4523;-0,0186;
18,909852;0,0255;1,1958;0,3063;-0,7880;1,5950;0,9800;0,2500;-0,4523;-0,0186;
18,931192;-0,0255;1,1371;0,0705;-0,7880;1,5950;0,9800;0,2500;-0,4523;-0,0186;
18,932862;-0,0255;1,1371;0,0705;-0,7880;1,5950;0,9800;0,6170;0,2957;0,0124;
18,933837;-0,0255;1,1371;0,0705;-1,0870;1,3830;0,1820;0,6170;0,2957;0,0124;
18,950701;-0,0255;1,1371;0,0705;-1,0150;0,9150;0,0360;0,6170;0,2957;0,0124;
18,973038;-0,0255;1,1371;0,0705;-1,6020;0,7330;0,4920;0,6170;0,2957;0,0124;
18,990498;-0,0889;1,0548;0,1688;-1,6020;0,7330;0,4920;0,6170;0,2957;0,0124;
18,991757;-0,0889;1,0548;0,1688;-1,6730;0,5520;1,5220;0,6170;0,2957;0,0124;
19,011793;-0,0889;1,0548;0,1688;-1,6730;0,5520;1,5220;0,9360;-0,3333;-0,0526;
19,012701;-0,0889;1,0548;0,1688;-1,2550;0,1420;1,6750;0,9360;-0,3333;-0,0526;
19,031103;-0,0889;1,0548;0,1688;-1,3450;-0,0440;0,5550;0,9360;-0,3333;-0,0526;
19,053867;-0,0601;0,9793;-0,1161;-1,3450;-0,0440;0,5550;0,9360;-0,3333;-0,0526;
19,055281;-0,0601;0,9793;-0,1161;-1,3860;-0,1730;-0,6610;0,9360;-0,3333;-0,0526;
19,070855;-0,0601;0,9793;-0,1161;-1,3860;-0,1730;-0,6610;0,6460;0,2397;0,0214;
19,072402;-0,0601;0,9793;-0,1161;-1,2020;-0,3020;-0,8010;0,6460;0,2397;0,0214;
19,094288;-0,0601;0,9793;-0,1161;-1,0220;-0,5270;-0,1500;0,6460;0,2397;0,0214;
19,112534;-0,0522;0,9209;-0,0198;-1,0220;-0,5270;-0,1500;0,6460;0,2397;0,0214;
19,113924;-0,0522;0,9209;-0,0198;-1,2860;-0,7270;0,5840;0,6460;0,2397;0,0214;
19,134193;-0,0522;0,9209;-0,0198;-1,2860;-0,7270;0,5840;0,4730;0,3687;-0,1556;
19,135564;-0,0522;0,9209;-0,0198;-1,6270;-0,8450;1,0500;0,4730;0,3687;-0,1556;
19,153031;-0,0522;0,9209;-0,0198;-1,6790;-0,9340;0,9600;0,4730;0,3687;-0,1556;
19,175804;-0,0880;0,9013;-0,0088;-1,6790;-0,9340;0,9600;0,4730;0,3687;-0,1556;
19,176978;-0,0880;0,9013;-0,0088;-1,5940;-0,8980;0,9480;0,4730;0,3687;-0,1556;
19,194314;-0,0880;0,9013;-0,0088;-1,5940;-0,8980;0,9480;0,5370;0,7277;-0,0666;
19,195641;-0,0880;0,9013;-0,0088;-1,2300;-0,8880;1,0500;0,5370;0,7277;-0,0666;
19,216393;-0,0880;0,9013;-0,0088;-0,8480;-0,9300;0,9840;0,5370;0,7277;-0,0666;
19,234618;0,0133;0,8899;-0,0212;-0,8480;-0,9300;0,9840;0,5370;0,7277;-0,0666;
19,235559;0,0133;0,8899;-0,0212;-0,4970;-0,9950;0,9970;0,5370;0,7277;-0,0666;
19,256174;0,0133;0,8899;-0,0212;-0,5530;-1,0670;0,5600;0,5370;0,7277;-0,0666;
19,276518;0,0133;0,8899;-0,0212;-0,5530;-1,0670;0,5600;0,7640;0,9037;-0,2296;
19,277894;0,0133;0,8899;-0,0212;-0,7560;-1,0930;0,2620;0,7640;0,9037;-0,2296;
19,297641;0,0162;0,8671;-0,1359;-0,7560;-1,0930;0,2620;0,7640;0,9037;-0,2296;
19,299046;0,0162;0,8671;-0,1359;-0,2800;-1,1810;0,2700;0,7640;0,9037;-0,2296;
19,314860;0,0162;0,8671;-0,1359;0,2810;-0,9540;-0,1370;0,7640;0,9037;-0,2296;
19,338266;0,0162;0,8671;-0,1359;0,2810;-0,9540;-0,1370;0,5820;0,8687;-0,4186;
19,340343;0,0162;0,8671;-0,1359;0,4780;-0,7720;-0,4340;0,5820;0,8687;-0,4186;
19,355365;0,0722;0,9041;-0,2209;0,4780;-0,7720;-0,4340;0,5820;0,8687;-0,4186;
19,357526;0,0722;0,9041;-0,2209;0,3940;-0,7610;-0,2420;0,5820;0,8687;-0,4186;
19,379101;0,0722;0,9041;-0,2209;0,2170;-0,9600;0,2620;0,5820;0,8687;-0,4186;
19,397253;0,0722;0,9041;-0,2209;0,2170;-0,9600;0,2620;0,2560;1,4827;-0,5426;
19,398905;0,0722;0,9041;-0,2209;0,1040;-1,0160;0,6550;0,2560;1,4827;-0,5426;
19,418710;0,0182;0,8635;-0,1335;0,1040;-1,0160;0,6550;0,2560;1,4827;-0,5426;
19,420024;0,0182;0,8635;-0,1335;-0,0090;-1,1500;0,6440;0,2560;1,4827;-0,5426;
19,437759;0,0182;0,8635;-0,1335;0,0280;-1,2570;0,7380;0,2560;1,4827;-0,5426;
19,460694;0,0182;0,8635;-0,1335;0,0280;-1,2570;0,7380;0,3330;1,2157;-0,5096;
