
time;gFx;gFy;gFz;ax;ay;az;wx;wy;wz;
0,066999;0,0000;0,0000;0,0000;0,0000;-0,1440;-0,1600;0,0000;0,0000;0,0000;
0,073263;0,0682;0,9635;0,1077;0,0000;-0,1440;-0,1600;0,0000;0,0000;0,0000;
0,074361;0,0682;0,9635;0,1077;-0,0200;-0,2830;-0,0340;0,0000;0,0000;0,0000;
0,086739;0,0682;0,9635;0,1077;-0,0200;-0,2830;-0,0340;-0,0865;-0,0453;0,0122;
0,087624;0,0682;0,9635;0,1077;-0,0130;-0,1070;-0,0130;-0,0865;-0,0453;0,0122;
0,110508;0,0682;0,9635;0,1077;-0,0130;0,0330;0,0080;-0,0865;-0,0453;0,0122;
0,129030;0,0591;0,9989;0,1681;-0,0130;0,0330;0,0080;-0,0865;-0,0453;0,0122;
0,129549;0,0591;0,9989;0,1681;0,0150;0,1220;0,0190;-0,0865;-0,0453;0,0122;
0,152177;0,0591;0,9989;0,1681;0,2910;0,0570;-0,0100;-0,0865;-0,0453;0,0122;
0,171074;0,0591;0,9989;0,1681;0,2910;0,0570;-0,0100;-0,0135;0,0137;0,0102;
0,172863;0,0591;0,9989;0,1681;0,4110;0,0720;-0,2730;-0,0135;0,0137;0,0102;
0,193425;0,0845;0,9930;0,1378;0,4110;0,0720;-0,2730;-0,0135;0,0137;0,0102;
0,194391;0,0845;0,9930;0,1378;0,2530;0,0720;-0,2890;-0,0135;0,0137;0,0102;
0,211225;0,0845;0,9930;0,1378;0,0180;0,0580;-0,1410;-0,0135;0,0137;0,0102;
0,232878;0,0845;0,9930;0,1378;0,0180;0,0580;-0,1410;0,0365;-0,1003;-0,0388;
0,234385;0,0845;0,9930;0,1378;-0,0570;0,1520;-0,1490;0,0365;-0,1003;-0,0388;
0,251992;0,0543;1,0084;0,1392;-0,0570;0,1520;-0,1490;0,0365;-0,1003;-0,0388;
0,253494;0,0543;1,0084;0,1392;-0,0050;0,1770;0,0000;0,0365;-0,1003;-0,0388;
0,273459;0,0543;1,0084;0,1392;0,0470;0,2260;-0,0120;0,0365;-0,1003;-0,0388;
0,291664;0,0543;1,0084;0,1392;0,0470;0,2260;-0,0120;0,0485;-0,0753;-0,0018;
0,293035;0,0543;1,0084;0,1392;0,0820;0,1840;-0,0230;0,0485;-0,0753;-0,0018;
0,314884;0,0743;0,9928;0,1309;0,0820;0,1840;-0,0230;0,0485;-0,0753;-0,0018;
0,316017;0,0743;0,9928;0,1309;0,1620;0,0190;-0,0110;0,0485;-0,0753;-0,0018;
0,332705;0,0743;0,9928;0,1309;0,1250;0,0040;-0,0760;0,0485;-0,0753;-0,0018;
0,355480;0,0743;0,9928;0,1309;0,1250;0,0040;-0,0760;0,0405;-0,0633;-0,0228;
0,358193;0,0743;0,9928;0,1309;0,0170;0,0850;0,0380;0,0405;-0,0633;-0,0228;
0,372108;0,0570;0,9973;0,1395;0,0170;0,0850;0,0380;0,0405;-0,0633;-0,0228;
0,372693;0,0570;0,9973;0,1395;-0,0060;0,0570;0,0950;0,0405;-0,0633;-0,0228;
0,396401;0,0570;0,9973;0,1395;-0,0040;-0,0260;-0,0910;0,0405;-0,0633;-0,0228;
0,416327;0,0570;0,9973;0,1395;0,0200;0,0250;-0,2180;0,0405;-0,0633;-0,0228;
0,437089;0,0633;1,0022;0,1226;0,0200;0,0250;-0,2180;0,0405;-0,0633;-0,0228;
0,439524;0,0633;1,0022;0,1226;0,0200;0,0250;-0,2180;-0,0205;-0,0213;0,0042;
0,440171;0,0633;1,0022;0,1226;0,0430;0,1070;-0,0270;-0,0205;-0,0213;0,0042;
0,453889;0,0633;1,0022;0,1226;-0,0460;0,1500;0,3150;-0,0205;-0,0213;0,0042;
0,477779;0,0633;1,0022;0,1226;0,0060;0,1250;0,2620;-0,0205;-0,0213;0,0042;
0,495555;0,0691;0,9961;0,1346;0,0060;0,1250;0,2620;-0,0205;-0,0213;0,0042;
0,496667;0,0691;0,9961;0,1346;0,0060;0,1250;0,2620;0,0825;-0,1343;-0,0128;
0,497978;0,0691;0,9961;0,1346;0,0920;0,0420;0,0550;0,0825;-0,1343;-0,0128;
0,522515;0,0691;0,9961;0,1346;0,1730;-0,0280;-0,1470;0,0825;-0,1343;-0,0128;
0,535710;0,0691;0,9961;0,1346;0,1510;-0,0160;-0,0750;0,0825;-0,1343;-0,0128;
0,558171;0,0555;0,9901;0,1201;0,1510;-0,0160;-0,0750;0,0825;-0,1343;-0,0128;
0,558813;0,0555;0,9901;0,1201;0,1510;-0,0160;-0,0750;0,0385;-0,0193;-0,0318;
0,559438;0,0555;0,9901;0,1201;-0,0550;-0,0180;-0,0230;0,0385;-0,0193;-0,0318;
0,575668;0,0555;0,9901;0,1201;-0,0980;0,0070;-0,0300;0,0385;-0,0193;-0,0318;
0,598828;0,0555;0,9901;0,1201;0,0970;0,0220;0,1120;0,0385;-0,0193;-0,0318;
0,617093;0,0759;0,9977;0,1455;0,0970;0,0220;0,1120;0,0385;-0,0193;-0,0318;
0,617568;0,0759;0,9977;0,1455;0,0970;0,0220;0,1120;0,0495;-0,0583;-0,0308;
0,618094;0,0759;0,9977;0,1455;0,1430;0,0510;0,2090;0,0495;-0,0583;-0,0308;
0,639110;0,0759;0,9977;0,1455;-0,0650;0,1590;0,1300;0,0495;-0,0583;-0,0308;
0,657913;0,0759;0,9977;0,1455;-0,2220;0,1010;-0,1310;0,0495;-0,0583;-0,0308;
0,681513;0,0443;0,9984;0,0987;-0,2220;0,1010;-0,1310;0,0495;-0,0583;-0,0308;
0,682647;0,0443;0,9984;0,0987;-0,1350;0,0560;-0,2000;0,0495;-0,0583;-0,0308;
0,699055;0,0443;0,9984;0,0987;-0,1350;0,0560;-0,2000;0,0155;-0,1233;0,0272;
0,700467;0,0443;0,9984;0,0987;0,1180;-0,0110;-0,0420;0,0155;-0,1233;0,0272;
0,720348;0,0443;0,9984;0,0987;0,0910;0,0020;-0,0090;0,0155;-0,1233;0,0272;
0,739371;0,0666;0,9961;0,1133;0,0910;0,0020;-0,0090;0,0155;-0,1233;0,0272;
0,740866;0,0666;0,9961;0,1133;0,0390;0,0290;-0,0310;0,0155;-0,1233;0,0272;
0,760481;0,0666;0,9961;0,1133;0,0390;0,0290;-0,0310;-0,0145;-0,0643;0,0262;
0,761830;0,0666;0,9961;0,1133;0,1310;0,0320;0,1080;-0,0145;-0,0643;0,0262;
0,781802;0,0666;0,9961;0,1133;0,1550;0,0350;0,2010;-0,0145;-0,0643;0,0262;
0,802481;0,0740;0,9930;0,1241;0,1550;0,0350;0,2010;-0,0145;-0,0643;0,0262;
0,804088;0,0740;0,9930;0,1241;0,0800;0,0080;0,0510;-0,0145;-0,0643;0,0262;
0,819453;0,0740;0,9930;0,1241;0,0800;0,0080;0,0510;0,0175;-0,0983;-0,0138;
0,821267;0,0740;0,9930;0,1241;0,0730;-0,0340;-0,1850;0,0175;-0,0983;-0,0138;
0,842858;0,0740;0,9930;0,1241;-0,0470;-0,0110;-0,3320;0,0175;-0,0983;-0,0138;
0,861012;0,0860;0,9989;0,0982;-0,0470;-0,0110;-0,3320;0,0175;-0,0983;-0,0138;
0,861943;0,0860;0,9989;0,0982;0,1680;0,0570;-0,1490;0,0175;-0,0983;-0,0138;
0,883090;0,0860;0,9989;0,0982;0,1680;0,0570;-0,1490;-0,0425;-0,1023;-0,0658;
0,883976;0,0860;0,9989;0,0982;0,1110;0,1710;0,3930;-0,0425;-0,1023;-0,0658;
0,901918;0,0860;0,9989;0,0982;-0,0240;0,1890;0,4750;-0,0425;-0,1023;-0,0658;
0,924102;0,0457;1,0164;0,1164;-0,0240;0,1890;0,4750;-0,0425;-0,1023;-0,0658;
0,924746;0,0457;1,0164;0,1164;-0,1900;0,2390;-0,0380;-0,0425;-0,1023;-0,0658;
0,942285;0,0457;1,0164;0,1164;0,0550;0,3280;-0,5250;-0,0425;-0,1023;-0,0658;
0,966456;0,0457;1,0164;0,1164;0,0550;0,3280;-0,5250;-0,0345;-0,0373;-0,0348;
0,967687;0,0457;1,0164;0,1164;0,1200;0,3390;-0,2730;-0,0345;-0,0373;-0,0348;
0,982615;0,0852;1,0416;0,1441;0,1200;0,3390;-0,2730;-0,0345;-0,0373;-0,0348;
0,984104;0,0852;1,0416;0,1441;0,1960;0,4790;0,2820;-0,0345;-0,0373;-0,0348;
1,005425;0,0852;1,0416;0,1441;0,1330;0,5640;0,4160;-0,0345;-0,0373;-0,0348;
1,023662;0,0852;1,0416;0,1441;0,1330;0,5640;0,4160;0,0705;-0,0423;-0,0858;
1,024837;0,0852;1,0416;0,1441;0,1790;0,6980;-0,0400;0,0705;-0,0423;-0,0858;
1,044784;0,0708;1,0922;0,0715;0,1790;0,6980;-0,0400;0,0705;-0,0423;-0,0858;
1,045500;0,0708;1,0922;0,0715;0,0690;0,9640;-0,3900;0,0705;-0,0423;-0,0858;
1,067267;0,0708;1,0922;0,0715;-0,1800;1,2470;-0,1450;0,0705;-0,0423;-0,0858;
1,087070;0,0708;1,0922;0,0715;-0,1800;1,2470;-0,1450;-0,0805;-0,2113;0,1082;
1,089447;0,0708;1,0922;0,0715;-0,0480;1,5460;-0,1360;-0,0805;-0,2113;0,1082;
1,105019;0,1297;1,1748;0,0178;-0,0480;1,5460;-0,1360;-0,0805;-0,2113;0,1082;
1,106603;0,1297;1,1748;0,0178;0,6460;1,7810;-0,9160;-0,0805;-0,2113;0,1082;
1,127475;0,1297;1,1748;0,0178;0,9940;1,9230;-0,9680;-0,0805;-0,2113;0,1082;
1,144681;0,1297;1,1748;0,0178;0,9940;1,9230;-0,9680;-0,2555;-0,4343;-0,1318;
1,146450;0,1297;1,1748;0,0178;0,6960;2,0930;-0,3810;-0,2555;-0,4343;-0,1318;
1,168064;0,0782;1,2462;0,1411;0,6960;2,0930;-0,3810;-0,2555;-0,4343;-0,1318;
1,169265;0,0782;1,2462;0,1411;0,1390;2,4920;0,1630;-0,2555;-0,4343;-0,1318;
1,185028;0,0782;1,2462;0,1411;0,1260;3,0780;0,6050;-0,2555;-0,4343;-0,1318;
1,208799;0,0782;1,2462;0,1411;0,2920;3,1960;0,5880;-0,2555;-0,4343;-0,1318;
1,227213;0,0565;1,2655;0,1216;0,2920;3,1960;0,5880;-0,2555;-0,4343;-0,1318;
1,227999;0,0565;1,2655;0,1216;0,2920;3,1960;0,5880;0,1905;-0,3133;-0,1308;
1,228666;0,0565;1,2655;0,1216;-0,0300;2,6730;0,0290;0,1905;-0,3133;-0,1308;
1,248158;0,0565;1,2655;0,1216;-0,2360;1,9730;-0,0800;0,1905;-0,3133;-0,1308;
1,268468;0,0565;1,2655;0,1216;-0,4770;1,3810;0,3280;0,1905;-0,3133;-0,1308;
1,289678;0,0071;1,1056;0,1478;-0,4770;1,3810;0,3280;0,1905;-0,3133;-0,1308;
1,291245;0,0071;1,1056;0,1478;-0,4770;1,3810;0,3280;0,5065;-0,3873;-0,0678;
1,291945;0,0071;1,1056;0,1478;-0,4860;1,0850;0,4720;0,5065;-0,3873;-0,0678;
1,307580;0,0071;1,1056;0,1478;-0,3890;0,7880;0,4550;0,5065;-0,3873;-0,0678;
1,329517;0,0071;1,1056;0,1478;-0,4750;0,5460;0,5990;0,5065;-0,3873;-0,0678;
1,348574;0,0152;1,0336;0,1071;-0,4750;0,5460;0,5990;0,5065;-0,3873;-0,0678;
1,349994;0,0152;1,0336;0,1071;-0,4750;0,5460;0,5990;0,7615;-0,2953;0,0712;
1,351187;0,0152;1,0336;0,1071;-0,4340;0,3460;0,4700;0,7615;-0,2953;0,0712;
1,370718;0,0152;1,0336;0,1071;-0,0670;0,0670;0,0270;0,7615;-0,2953;0,0712;
1,390052;0,0152;1,0336;0,1071;-0,1880;0,1300;0,3100;0,7615;-0,2953;0,0712;
1,411168;0,0177;1,0252;0,1404;-0,1880;0,1300;0,3100;0,7615;-0,2953;0,0712;
1,412648;0,0177;1,0252;0,1404;-0,1880;0,1300;0,3100;0,6855;-0,1573;-0,0218;
1,414104;0,0177;1,0252;0,1404;-0,4130;0,2490;1,2310;0,6855;-0,1573;-0,0218;
1,429341;0,0177;1,0252;0,1404;-0,0730;0,2620;1,6430;0,6855;-0,1573;-0,0218;
1,452097;0,0177;1,0252;0,1404;-0,2690;0,0000;1,4290;0,6855;-0,1573;-0,0218;
1,492144;-0,0058;0,9695;0,0417;-0,2690;0,0000;1,4290;0,6855;-0,1573;-0,0218;
1,492794;-0,0058;0,9695;0,0417;-0,5280;-0,3010;0,4990;0,6855;-0,1573;-0,0218;
1,493431;-0,0058;0,9695;0,0417;-0,5280;-0,3010;0,4990;0,9125;-0,1883;-0,0188;
1,494051;-0,0058;0,9695;0,0417;-0,6310;-0,4070;0,0180;0,9125;-0,1883;-0,0188;
1,520200;-0,0058;0,9695;0,0417;-0,3330;-0,5780;0,4600;0,9125;-0,1883;-0,0188;
1,548808;0,0282;0,9158;0,0535;-0,3330;-0,5780;0,4600;0,9125;-0,1883;-0,0188;
1,550111;0,0282;0,9158;0,0535;-0,1820;-0,8210;1,0090;0,9125;-0,1883;-0,0188;
1,564886;0,0282;0,9158;0,0535;-0,1820;-0,8210;1,0090;0,8485;-0,3473;-0,1088;
1,566593;0,0282;0,9158;0,0535;-0,1400;-1,5070;1,3130;0,8485;-0,3473;-0,1088;
1,584857;0,0282;0,9158;0,0535;-0,2760;-1,9580;0,8210;0,8485;-0,3473;-0,1088;
1,599999;-0,0011;0,7598;-0,0422;-0,2760;-1,9580;0,8210;0,8485;-0,3473;-0,1088;
1,601312;-0,0011;0,7598;-0,0422;-0,3380;-2,3100;0,6120;0,8485;-0,3473;-0,1088;
1,617895;-0,0011;0,7598;-0,0422;-0,3380;-2,3100;0,6120;0,7295;0,0457;-0,2208;
1,619445;-0,0011;0,7598;-0,0422;-0,7840;-2,8660;0,5810;0,7295;0,0457;-0,2208;
1,644982;-0,0011;0,7598;-0,0422;-0,9970;-3,4350;0,1600;0,7295;0,0457;-0,2208;
1,655609;-0,0806;0,6318;-0,1317;-0,9970;-3,4350;0,1600;0,7295;0,0457;-0,2208;
1,657310;-0,0806;0,6318;-0,1317;-1,0260;-3,5150;0,1500;0,7295;0,0457;-0,2208;
1,674479;-0,0806;0,6318;-0,1317;-1,0260;-3,5150;0,1500;0,4345;0,5587;-0,1658;
1,675873;-0,0806;0,6318;-0,1317;-0,9780;-3,4600;0,7580;0,4345;0,5587;-0,1658;
1,694555;-0,0806;0,6318;-0,1317;-1,5880;-3,8290;0,6640;0,4345;0,5587;-0,1658;
1,714866;-0,1984;0,5646;-0,1691;-1,5880;-3,8290;0,6640;0,4345;0,5587;-0,1658;
1,715814;-0,1984;0,5646;-0,1691;-2,1310;-4,1280;0,0400;0,4345;0,5587;-0,1658;
1,735204;-0,1984;0,5646;-0,1691;-2,2760;-3,9260;-0,3340;0,4345;0,5587;-0,1658;
1,756092;-0,1984;0,5646;-0,1691;-2,2760;-3,9260;-0,3340;-0,0135;0,6577;-0,1688;
1,757556;-0,1984;0,5646;-0,1691;-2,6220;-3,8580;-0,2750;-0,0135;0,6577;-0,1688;
1,775901;-0,2441;0,5976;-0,1276;-2,6220;-3,8580;-0,2750;-0,0135;0,6577;-0,1688;
1,777192;-0,2441;0,5976;-0,1276;-2,5600;-3,8120;0,4630;-0,0135;0,6577;-0,1688;
1,796551;-0,2441;0,5976;-0,1276;-1,7690;-3,4330;1,4770;-0,0135;0,6577;-0,1688;
1,817376;-0,2441;0,5976;-0,1276;-1,7690;-3,4330;1,4770;-0,5295;1,3077;-0,1538;
1,818826;-0,2441;0,5976;-0,1276;-1,8270;-3,6000;2,1710;-0,5295;1,3077;-0,1538;
1,835846;-0,1412;0,6333;0,0204;-1,8270;-3,6000;2,1710;-0,5295;1,3077;-0,1538;
1,836644;-0,1412;0,6333;0,0204;-1,5710;-3,5050;1,5980;-0,5295;1,3077;-0,1538;
1,857985;-0,1412;0,6333;0,0204;-1,3110;-2,4670;0,4900;-0,5295;1,3077;-0,1538;
1,878207;-0,1412;0,6333;0,0204;-1,3110;-2,4670;0,4900;-0,3345;1,6727;-0,3828;
1,879889;-0,1412;0,6333;0,0204;-1,9880;-1,8770;0,4270;-0,3345;1,6727;-0,3828;
1,899264;-0,1630;0,8121;-0,0694;-1,9880;-1,8770;0,4270;-0,3345;1,6727;-0,3828;
1,900956;-0,1630;0,8121;-0,0694;-1,7310;-1,7790;0,5180;-0,3345;1,6727;-0,3828;
1,917195;-0,1630;0,8121;-0,0694;-0,7600;-1,6460;0,0070;-0,3345;1,6727;-0,3828;
1,939650;-0,1630;0,8121;-0,0694;-0,7600;-1,6460;0,0070;-0,9425;1,5377;-0,2668;
1,941107;-0,1630;0,8121;-0,0694;-1,1860;-0,7780;-0,5080;-0,9425;1,5377;-0,2668;
1,958290;-0,0877;1,0079;-0,0489;-1,1860;-0,7780;-0,5080;-0,9425;1,5377;-0,2668;
1,959934;-0,0877;1,0079;-0,0489;-0,9130;0,0910;0,2010;-0,9425;1,5377;-0,2668;
1,980159;-0,0877;1,0079;-0,0489;-0,0570;0,2160;1,2780;-0,9425;1,5377;-0,2668;
2,000314;-0,0877;1,0079;-0,0489;0,5430;0,6990;0,9410;-0,9425;1,5377;-0,2668;
2,025501;-0,0530;1,1271;-0,0005;0,5430;0,6990;0,9410;-0,9425;1,5377;-0,2668;
2,026497;-0,0530;1,1271;-0,0005;0,5430;0,6990;0,9410;-1,1345;1,0147;-0,4228;
2,027576;-0,0530;1,1271;-0,0005;-0,4100;1,2260;0,0830;-1,1345;1,0147;-0,4228;
2,039046;-0,0530;1,1271;-0,0005;-0,1040;1,6500;1,0310;-1,1345;1,0147;-0,4228;
2,061180;-0,0530;1,1271;-0,0005;0,3460;1,4280;2,4660;-1,1345;1,0147;-0,4228;
2,081676;0,0686;1,1335;0,3890;0,3460;1,4280;2,4660;-1,1345;1,0147;-0,4228;
2,082852;0,0686;1,1335;0,3890;0,8700;1,3170;3,1570;-1,1345;1,0147;-0,4228;
2,083851;0,0686;1,1335;0,3890;0,8700;1,3170;3,1570;-0,7775;0,8767;-0,0368;
2,100811;0,0686;1,1335;0,3890;1,7230;1,2960;1,5650;-0,7775;0,8767;-0,0368;
2,121703;0,0686;1,1335;0,3890;1,6350;1,3440;-0,8540;-0,7775;0,8767;-0,0368;
2,143081;0,0703;1,1497;0,0153;1,6350;1,3440;-0,8540;-0,7775;0,8767;-0,0368;
2,144429;0,0703;1,1497;0,0153;1,6350;1,3440;-0,8540;-0,9805;1,0947;0,0602;
2,145536;0,0703;1,1497;0,0153;0,9690;1,5090;-0,8130;-0,9805;1,0947;0,0602;
2,161919;0,0703;1,1497;0,0153;1,6380;1,5830;0,9380;-0,9805;1,0947;0,0602;
2,183043;0,0703;1,1497;0,0153;2,8870;1,5180;1,3490;-0,9805;1,0947;0,0602;
2,202788;0,2568;1,0976;0,1084;2,8870;1,5180;1,3490;-0,9805;1,0947;0,0602;
2,204992;0,2568;1,0976;0,1084;2,8870;1,5180;1,3490;-0,3835;0,4047;-0,0368;
2,205995;0,2568;1,0976;0,1084;2,8080;1,0380;-0,3050;-0,3835;0,4047;-0,0368;
2,223784;0,2568;1,0976;0,1084;2,6080;1,1320;-1,9790;-0,3835;0,4047;-0,0368;
2,243479;0,2568;1,0976;0,1084;2,4950;1,8900;-1,5190;-0,3835;0,4047;-0,0368;
2,267105;0,1671;1,2589;0,1734;2,4950;1,8900;-1,5190;-0,3835;0,4047;-0,0368;
2,268378;0,1671;1,2589;0,1734;2,0130;2,6850;-0,0640;-0,3835;0,4047;-0,0368;
2,283101;0,1671;1,2589;0,1734;2,0130;2,6850;-0,0640;-0,8795;0,4627;-0,0468;
2,284532;0,1671;1,2589;0,1734;1,5500;3,0320;1,2080;-0,8795;0,4627;-0,0468;
2,305107;0,1671;1,2589;0,1734;1,3700;3,2170;1,2220;-0,8795;0,4627;-0,0468;
2,325122;0,1642;1,3747;0,1839;1,3700;3,2170;1,2220;-0,8795;0,4627;-0,0468;
2,326690;0,1642;1,3747;0,1839;1,9680;3,8900;-0,2650;-0,8795;0,4627;-0,0468;
2,345539;0,1642;1,3747;0,1839;1,9680;3,8900;-0,2650;-0,0185;0,1947;0,2972;
2,346336;0,1642;1,3747;0,1839;2,1750;4,4880;-0,8820;-0,0185;0,1947;0,2972;
2,365037;0,1642;1,3747;0,1839;1,9020;4,2960;-0,1040;-0,0185;0,1947;0,2972;
2,389269;0,1363;1,4341;0,2222;1,9020;4,2960;-0,1040;-0,0185;0,1947;0,2972;
2,390505;0,1363;1,4341;0,2222;1,5610;4,4510;0,1340;-0,0185;0,1947;0,2972;
2,404621;0,1363;1,4341;0,2222;1,5610;4,4510;0,1340;0,5105;0,2447;0,3202;
2,405385;0,1363;1,4341;0,2222;1,7430;5,3870;-0,5200;0,5105;0,2447;0,3202;
2,427019;0,1363;1,4341;0,2222;2,5010;6,0590;-0,6040;0,5105;0,2447;0,3202;
2,445668;0,2385;1,5698;0,1231;2,5010;6,0590;-0,6040;0,5105;0,2447;0,3202;
2,447037;0,2385;1,5698;0,1231;2,4500;5,7210;-0,5120;0,5105;0,2447;0,3202;
2,467216;0,2385;1,5698;0,1231;2,4500;5,7210;-0,5120;0,8995;0,2677;-0,1838;
2,468188;0,2385;1,5698;0,1231;1,5120;5,2030;-1,4600;0,8995;0,2677;-0,1838;
2,486220;0,2385;1,5698;0,1231;1,2430;4,8920;-1,9120;0,8995;0,2677;-0,1838;
2,509152;0,1136;1,4278;0,0014;1,2430;4,8920;-1,9120;0,8995;0,2677;-0,1838;
2,510166;0,1136;1,4278;0,0014;1,3470;4,2600;-1,2020;0,8995;0,2677;-0,1838;
2,525646;0,1136;1,4278;0,0014;1,1500;3,1530;-0,4460;0,8995;0,2677;-0,1838;
2,549064;0,1136;1,4278;0,0014;1,1500;3,1530;-0,4460;0,9835;0,3407;-0,1248;
2,549872;0,1136;1,4278;0,0014;1,2790;2,4680;0,1660;0,9835;0,3407;-0,1248;
2,567478;0,1148;1,1638;0,0971;1,2790;2,4680;0,1660;0,9835;0,3407;-0,1248;
2,568480;0,1148;1,1638;0,0971;1,4800;1,6210;0,3030;0,9835;0,3407;-0,1248;
2,589305;0,1148;1,1638;0,0971;1,2360;0,6020;-0,0560;0,9835;0,3407;-0,1248;
2,608395;0,1148;1,1638;0,0971;1,2360;0,6020;-0,0560;1,2835;0,0147;-0,2598;
2,609164;0,1148;1,1638;0,0971;0,8030;-0,2050;0,1280;1,2835;0,0147;-0,2598;
2,629718;0,0274;0,9197;0,0263;0,8030;-0,2050;0,1280;1,2835;0,0147;-0,2598;
2,631173;0,0274;0,9197;0,0263;0,7740;-0,7890;0,3750;1,2835;0,0147;-0,2598;
2,649033;0,0274;0,9197;0,0263;1,2440;-1,2570;0,7380;1,2835;0,0147;-0,2598;
2,671896;0,0274;0,9197;0,0263;1,2440;-1,2570;0,7380;1,3875;-0,3283;-0,1688;
2,673461;0,0274;0,9197;0,0263;1,6350;-1,4590;1,6300;1,3875;-0,3283;-0,1688;
2,689668;0,0982;0,7980;0,1272;1,6350;-1,4590;1,6300;1,3875;-0,3283;-0,1688;
2,691213;0,0982;0,7980;0,1272;1,5560;-1,9240;2,1790;1,3875;-0,3283;-0,1688;
2,711098;0,0982;0,7980;0,1272;1,2040;-2,6250;1,5670;1,3875;-0,3283;-0,1688;
2,731950;0,0982;0,7980;0,1272;1,2040;-2,6250;1,5670;1,3825;0,1197;0,0802;
2,732673;0,0982;0,7980;0,1272;1,0670;-3,2520;1,3160;1,3825;0,1197;0,0802;
2,753106;0,0887;0,5734;-0,0161;1,0670;-3,2520;1,3160;1,3825;0,1197;0,0802;
2,754346;0,0887;0,5734;-0,0161;1,4960;-4,0110;1,6290;1,3825;0,1197;0,0802;
2,770869;0,0887;0,5734;-0,0161;1,6590;-4,2470;1,0870;1,3825;0,1197;0,0802;
2,793187;0,0887;0,5734;-0,0161;1,4930;-4,4150;0,4230;1,3825;0,1197;0,0802;
2,811108;0,0657;0,4828;-0,2419;1,4930;-4,4150;0,4230;1,3825;0,1197;0,0802;
2,812352;0,0657;0,4828;-0,2419;1,4930;-4,4150;0,4230;0,8555;-0,1063;0,1242;
2,813230;0,0657;0,4828;-0,2419;1,2170;-4,7560;0,0630;0,8555;-0,1063;0,1242;
2,832668;0,0657;0,4828;-0,2419;1,2170;-4,8340;-0,2780;0,8555;-0,1063;0,1242;
2,851851;0,0657;0,4828;-0,2419;1,5760;-4,7200;-0,5290;0,8555;-0,1063;0,1242;
2,874916;0,1864;0,5045;-0,2967;1,5760;-4,7200;-0,5290;0,8555;-0,1063;0,1242;
2,876270;0,1864;0,5045;-0,2967;1,5760;-4,7200;-0,5290;0,0745;-0,9433;0,4612;
2,877044;0,1864;0,5045;-0,2967;2,3000;-4,4970;-0,2460;0,0745;-0,9433;0,4612;
2,892652;0,1864;0,5045;-0,2967;2,5770;-4,4760;0,4070;0,0745;-0,9433;0,4612;
2,915315;0,1864;0,5045;-0,2967;2,5710;-4,3500;1,0720;0,0745;-0,9433;0,4612;
2,933450;0,2197;0,5832;-0,1652;2,5710;-4,3500;1,0720;0,0745;-0,9433;0,4612;
2,934813;0,2197;0,5832;-0,1652;2,5710;-4,3500;1,0720;-0,1285;-0,0343;0,4312;
2,935956;0,2197;0,5832;-0,1652;2,4710;-3,7470;0,9760;-0,1285;-0,0343;0,4312;
2,956238;0,2197;0,5832;-0,1652;2,0930;-3,3750;0,3230;-0,1285;-0,0343;0,4312;
2,974380;0,2197;0,5832;-0,1652;1,6690;-2,8150;-0,1230;-0,1285;-0,0343;0,4312;
2,996477;0,1381;0,7186;-0,2278;1,6690;-2,8150;-0,1230;-0,1285;-0,0343;0,4312;
2,997225;0,1381;0,7186;-0,2278;1,6690;-2,8150;-0,1230;-0,4165;-0,7913;0,4552;
2,997696;0,1381;0,7186;-0,2278;1,4670;-2,4500;0,2390;-0,4165;-0,7913;0,4552;
3,021794;0,1381;0,7186;-0,2278;1,4730;-2,0910;0,6180;-0,4165;-0,7913;0,4552;
3,037056;0,1381;0,7186;-0,2278;1,7020;-1,9000;0,6160;-0,4165;-0,7913;0,4552;
3,056164;0,1712;0,8002;-0,1298;1,7020;-1,9000;0,6160;-0,4165;-0,7913;0,4552;
3,057344;0,1712;0,8002;-0,1298;1,6650;-1,7420;0,8530;-0,4165;-0,7913;0,4552;
3,077997;0,1712;0,8002;-0,1298;1,6650;-1,7420;0,8530;-0,8505;-1,0723;0,4112;
3,078651;0,1712;0,8002;-0,1298;1,2870;-1,5040;1,2220;-0,8505;-1,0723;0,4112;
3,095854;0,1712;0,8002;-0,1298;0,6830;-1,7810;1,7010;-0,8505;-1,0723;0,4112;
3,119033;0,0831;0,8677;0,0056;0,6830;-1,7810;1,7010;-0,8505;-1,0723;0,4112;
3,121054;0,0831;0,8677;0,0056;0,6350;-1,1640;1,7150;-0,8505;-1,0723;0,4112;
3,135298;0,0831;0,8677;0,0056;0,6350;-1,1640;1,7150;-0,5675;-1,0403;0,4952;
3,136466;0,0831;0,8677;0,0056;0,4670;-0,3770;1,0880;-0,5675;-1,0403;0,4952;
3,159668;0,0831;0,8677;0,0056;0,1900;-0,4340;0,7650;-0,5675;-1,0403;0,4952;
3,177267;0,0350;0,9556;0,0915;0,1900;-0,4340;0,7650;-0,5675;-1,0403;0,4952;
3,178011;0,0350;0,9556;0,0915;-0,0350;-0,3560;2,1810;-0,5675;-1,0403;0,4952;
3,199941;0,0350;0,9556;0,0915;-0,0350;-0,3560;2,1810;-0,1605;-0,4013;0,7362;
3,201508;0,0350;0,9556;0,0915;-0,5100;0,0320;3,3180;-0,1605;-0,4013;0,7362;
3,217934;0,0350;0,9556;0,0915;-0,8830;0,2570;1,4190;-0,1605;-0,4013;0,7362;
3,240738;-0,0752;1,0355;-0,2290;-0,8830;0,2570;1,4190;-0,1605;-0,4013;0,7362;
3,242357;-0,0752;1,0355;-0,2290;-1,4960;0,4460;-1,0130;-0,1605;-0,4013;0,7362;
3,258921;-0,0752;1,0355;-0,2290;-1,4960;0,4460;-1,0130;-0,7415;-0,6433;0,6432;
3,259980;-0,0752;1,0355;-0,2290;-0,4040;1,0260;-1,1100;-0,7415;-0,6433;0,6432;
3,281330;-0,0752;1,0355;-0,2290;0,5840;1,8230;-0,5330;-0,7415;-0,6433;0,6432;
3,299048;-0,0255;1,1394;-0,1041;0,5840;1,8230;-0,5330;-0,7415;-0,6433;0,6432;
3,299910;-0,0255;1,1394;-0,1041;-1,2600;1,4330;-0,2090;-0,7415;-0,6433;0,6432;
3,320524;-0,0255;1,1394;-0,1041;-2,4970;0,8150;-0,0980;-0,7415;-0,6433;0,6432;
3,340028;-0,0255;1,1394;-0,1041;-2,4970;0,8150;-0,0980;-1,2225;-0,8373;0,1852;
3,341702;-0,0255;1,1394;-0,1041;-1,6050;1,3110;0,7490;-1,2225;-0,8373;0,1852;
3,361358;0,0416;1,2149;0,1688;-1,6050;1,3110;0,7490;-1,2225;-0,8373;0,1852;
3,362177;0,0416;1,2149;0,1688;-0,6610;2,1550;1,7370;-1,2225;-0,8373;0,1852;
3,381017;0,0416;1,2149;0,1688;-2,0000;1,8830;0,9930;-1,2225;-0,8373;0,1852;
3,402794;0,0416;1,2149;0,1688;-2,0000;1,8830;0,9930;-0,5395;0,0377;0,0692;
3,403707;0,0416;1,2149;0,1688;-2,6700;1,4360;-0,8800;-0,5395;0,0377;0,0692;
3,423195;-0,0605;1,1196;-0,1415;-2,6700;1,4360;-0,8800;-0,5395;0,0377;0,0692;
3,424159;-0,0605;1,1196;-0,1415;-1,6720;1,2230;-1,7120;-0,5395;0,0377;0,0692;
3,443363;-0,0605;1,1196;-0,1415;-1,0060;1,4340;-1,6960;-0,5395;0,0377;0,0692;
3,461549;-0,0605;1,1196;-0,1415;-1,0060;1,4340;-1,6960;-0,6715;-0,0793;-0,2228;
3,462503;-0,0605;1,1196;-0,1415;-1,0830;2,2280;-1,5870;-0,6715;-0,0793;-0,2228;
3,484057;-0,0769;1,2232;-0,0112;-1,0830;2,2280;-1,5870;-0,6715;-0,0793;-0,2228;
3,485402;-0,0769;1,2232;-0,0112;-1,7890;2,2590;-0,8030;-0,6715;-0,0793;-0,2228;
3,500966;-0,0769;1,2232;-0,0112;-1,7670;2,0990;-0,2560;-0,6715;-0,0793;-0,2228;
3,524840;-0,0769;1,2232;-0,0112;-1,7670;2,0990;-0,2560;-0,1495;-0,4003;-0,1678;
3,525785;-0,0769;1,2232;-0,0112;-1,1200;2,0330;-0,6710;-0,1495;-0,4003;-0,1678;
3,541804;0,0558;1,1800;-0,0643;-1,1200;2,0330;-0,6710;-0,1495;-0,4003;-0,1678;
3,542884;0,0558;1,1800;-0,0643;-0,4090;1,8410;-1,4840;-0,1495;-0,4003;-0,1678;
3,565179;0,0558;1,1800;-0,0643;-0,6370;1,9880;-1,5890;-0,1495;-0,4003;-0,1678;
3,583415;0,0558;1,1800;-0,0643;-1,1010;2,1520;-0,1420;-0,1495;-0,4003;-0,1678;
3,607125;-0,0168;1,1907;0,1851;-1,1010;2,1520;-0,1420;-0,1495;-0,4003;-0,1678;
3,609066;-0,0168;1,1907;0,1851;-1,1010;2,1520;-0,1420;-0,2555;-0,0933;-0,2368;
3,610030;-0,0168;1,1907;0,1851;-0,9430;1,9350;0,7990;-0,2555;-0,0933;-0,2368;
3,623126;-0,0168;1,1907;0,1851;-0,5750;1,5670;0,4040;-0,2555;-0,0933;-0,2368;
3,647426;-0,0168;1,1907;0,1851;-0,4540;1,4680;-0,7020;-0,2555;-0,0933;-0,2368;
3,665044;0,0801;1,1108;-0,0420;-0,4540;1,4680;-0,7020;-0,2555;-0,0933;-0,2368;
3,665697;0,0801;1,1108;-0,0420;-0,4540;1,4680;-0,7020;0,1755;0,1407;0,0022;
3,666267;0,0801;1,1108;-0,0420;0,0380;1,1510;-1,3760;0,1755;0,1407;0,0022;
3,686332;0,0801;1,1108;-0,0420;0,4670;0,9850;-1,3690;0,1755;0,1407;0,0022;
3,705777;0,0801;1,1108;-0,0420;0,5130;0,6710;-0,7560;0,1755;0,1407;0,0022;
3,727950;0,0892;1,0267;0,0610;0,5130;0,6710;-0,7560;0,1755;0,1407;0,0022;
3,729477;0,0892;1,0267;0,0610;0,5130;0,6710;-0,7560;0,0485;-0,0873;-0,1558;
3,730230;0,0892;1,0267;0,0610;0,1870;0,3150;-0,3610;0,0485;-0,0873;-0,1558;
3,745608;0,0892;1,0267;0,0610;-0,0470;0,2840;-0,3880;0,0485;-0,0873;-0,1558;
3,768522;0,0892;1,0267;0,0610;0,1410;0,2270;-0,5740;0,0485;-0,0873;-0,1558;
3,787706;0,0962;1,0099;0,0314;0,1410;0,2270;-0,5740;0,0485;-0,0873;-0,1558;
3,788965;0,0962;1,0099;0,0314;0,1410;0,2270;-0,5740;0,0015;-0,3053;-0,0538;
3,789979;0,0962;1,0099;0,0314;0,2960;0,1440;-0,6030;0,0015;-0,3053;-0,0538;
3,807796;0,0962;1,0099;0,0314;0,3560;0,0740;-0,3650;0,0015;-0,3053;-0,0538;
3,828453;0,0962;1,0099;0,0314;0,3650;-0,0190;-0,1530;0,0015;-0,3053;-0,0538;
3,848286;0,0920;0,9891;0,0996;0,3650;-0,0190;-0,1530;0,0015;-0,3053;-0,0538;
3,849697;0,0920;0,9891;0,0996;0,2140;-0,0580;0,0850;0,0015;-0,3053;-0,0538;
3,868899;0,0920;0,9891;0,0996;0,2140;-0,0580;0,0850;-0,0515;-0,1843;-0,1028;
3,869646;0,0920;0,9891;0,0996;-0,0240;0,0500;0,1970;-0,0515;-0,1843;-0,1028;
3,889001;0,0920;0,9891;0,0996;-0,0790;0,0910;0,1200;-0,0515;-0,1843;-0,1028;
3,909346;0,0987;0,9954;0,0913;-0,0790;0,0910;0,1200;-0,0515;-0,1843;-0,1028;
3,910216;0,0987;0,9954;0,0913;0,2750;0,0100;-0,0120;-0,0515;-0,1843;-0,1028;
3,929755;0,0987;0,9954;0,0913;0,2750;0,0100;-0,0120;0,1315;0,1007;0,0102;
3,931512;0,0987;0,9954;0,0913;0,4270;-0,0050;-0,4420;0,1315;0,1007;0,0102;
3,949665;0,0987;0,9954;0,0913;0,1330;0,0420;-0,7210;0,1315;0,1007;0,0102;
3,971589;0,0767;1,0050;0,0283;0,1330;0,0420;-0,7210;0,1315;0,1007;0,0102;
3,973234;0,0767;1,0050;0,0283;0,0270;0,0940;-0,4530;0,1315;0,1007;0,0102;
3,989848;0,0767;1,0050;0,0283;0,0270;0,0940;-0,4530;0,0045;0,0637;0,0042;
3,991862;0,0767;1,0050;0,0283;0,1020;0,0800;-0,1080;0,0045;0,0637;0,0042;
4,012357;0,0767;1,0050;0,0283;0,0950;0,0120;-0,0600;0,0045;0,0637;0,0042;
4,035761;0,0626;1,0069;0,0458;0,0950;0,0120;-0,0600;0,0045;0,0637;0,0042;
4,036757;0,0626;1,0069;0,0458;-0,1100;0,1050;-0,2540;0,0045;0,0637;0,0042;
4,052550;0,0626;1,0069;0,0458;-0,1100;0,1050;-0,2540;0,0165;0,0037;0,0142;
4,054045;0,0626;1,0069;0,0458;-0,1250;0,1990;-0,0720;0,0165;0,0037;0,0142;
4,072005;0,0626;1,0069;0,0458;0,0450;0,0900;-0,0880;0,0165;0,0037;0,0142;
4,093050;0,0823;0,9984;0,0304;0,0450;0,0900;-0,0880;0,0165;0,0037;0,0142;
4,094288;0,0823;0,9984;0,0304;0,0770;0,0200;-0,3520;0,0165;0,0037;0,0142;
4,112169;0,0823;0,9984;0,0304;-0,1300;-0,0090;-0,3400;0,0165;0,0037;0,0142;
4,133054;0,0823;0,9984;0,0304;-0,1300;-0,0090;-0,3400;-0,0425;-0,1243;0,0092;
4,134332;0,0823;0,9984;0,0304;-0,0710;0,0990;-0,0680;-0,0425;-0,1243;0,0092;
4,153768;0,0943;1,0031;0,0852;-0,0710;0,0990;-0,0680;-0,0425;-0,1243;0,0092;
4,155268;0,0943;1,0031;0,0852;0,1810;0,0610;0,2020;-0,0425;-0,1243;0,0092;
4,173383;0,0943;1,0031;0,0852;0,1790;-0,0320;0,1290;-0,0425;-0,1243;0,0092;
4,194689;0,0943;1,0031;0,0852;0,1790;-0,0320;0,1290;0,0375;0,0067;-0,0028;
4,196342;0,0943;1,0031;0,0852;-0,0600;-0,0340;-0,1000;0,0375;0,0067;-0,0028;
4,215262;0,0682;0,9950;0,0439;-0,0600;-0,0340;-0,1000;0,0375;0,0067;-0,0028;
4,216765;0,0682;0,9950;0,0439;-0,0690;-0,0220;-0,1750;0,0375;0,0067;-0,0028;
4,233345;0,0682;0,9950;0,0439;0,0330;0,0040;-0,1980;0,0375;0,0067;-0,0028;
4,256007;0,0682;0,9950;0,0439;0,0330;0,0040;-0,1980;-0,0175;0,0047;-0,0128;
4,257078;0,0682;0,9950;0,0439;-0,0430;0,1130;0,0270;-0,0175;0,0047;-0,0128;
4,274283;0,0605;1,0052;0,0817;-0,0430;0,1130;0,0270;-0,0175;0,0047;-0,0128;
4,275641;0,0605;1,0052;0,0817;-0,1370;0,0860;0,1880;-0,0175;0,0047;-0,0128;
4,296186;0,0605;1,0052;0,0817;-0,0890;-0,0240;-0,0470;-0,0175;0,0047;-0,0128;
4,316077;0,0605;1,0052;0,0817;-0,0890;-0,0240;-0,0470;-0,0065;-0,0003;0,0062;
4,316804;0,0605;1,0052;0,0817;-0,0210;-0,0250;-0,3150;-0,0065;-0,0003;0,0062;
4,336159;0,0684;0,9986;0,0255;-0,0210;-0,0250;-0,3150;-0,0065;-0,0003;0,0062;
4,337298;0,0684;0,9986;0,0255;-0,0450;0,0130;-0,2930;-0,0065;-0,0003;0,0062;
4,356903;0,0684;0,9986;0,0255;-0,0540;0,0820;0,0590;-0,0065;-0,0003;0,0062;
4,378361;0,0684;0,9986;0,0255;0,0250;0,0970;0,2860;-0,0065;-0,0003;0,0062;
4,398191;0,0869;1,0038;0,0600;0,0250;0,0970;0,2860;-0,0065;-0,0003;0,0062;
4,398840;0,0869;1,0038;0,0600;0,0250;0,0970;0,2860;0,0065;-0,0263;0,0112;
4,399302;0,0869;1,0038;0,0600;0,1220;0,0710;0,0000;0,0065;-0,0263;0,0112;
4,417377;0,0869;1,0038;0,0600;0,1490;0,1110;-0,2490;0,0065;-0,0263;0,0112;
4,438389;0,0869;1,0038;0,0600;0,0900;0,1390;-0,1200;0,0065;-0,0263;0,0112;
4,458583;0,0931;1,0035;0,0595;0,0900;0,1390;-0,1200;0,0065;-0,0263;0,0112;
4,459599;0,0931;1,0035;0,0595;0,0900;0,1390;-0,1200;-0,0035;-0,0513;-0,0218;
4,460274;0,0931;1,0035;0,0595;0,1500;0,0710;0,0140;-0,0035;-0,0513;-0,0218;
4,477790;0,0931;1,0035;0,0595;0,1810;0,0450;0,0000;-0,0035;-0,0513;-0,0218;
4,499247;0,0931;1,0035;0,0595;-0,0140;0,0440;-0,0780;-0,0035;-0,0513;-0,0218;
4,518917;0,0679;0,9971;0,0453;-0,0140;0,0440;-0,0780;-0,0035;-0,0513;-0,0218;
4,519930;0,0679;0,9971;0,0453;-0,0140;0,0440;-0,0780;-0,0195;0,0157;-0,0008;
4,520680;0,0679;0,9971;0,0453;-0,0860;0,0020;-0,1150;-0,0195;0,0157;-0,0008;
4,539846;0,0679;0,9971;0,0453;0,0340;-0,0100;-0,0220;-0,0195;0,0157;-0,0008;
4,559644;0,0679;0,9971;0,0453;-0,0040;-0,0500;0,1370;-0,0195;0,0157;-0,0008;
4,580543;0,0710;1,0059;0,0852;-0,0040;-0,0500;0,1370;-0,0195;0,0157;-0,0008;
4,581306;0,0710;1,0059;0,0852;-0,0040;-0,0500;0,1370;-0,0295;0,0047;0,0112;
4,581727;0,0710;1,0059;0,0852;-0,0410;0,0860;0,2330;-0,0295;0,0047;0,0112;
4,599124;0,0710;1,0059;0,0852;0,0230;0,2240;0,1230;-0,0295;0,0047;0,0112;
4,621178;0,0710;1,0059;0,0852;0,1460;0,1840;0,0010;-0,0295;0,0047;0,0112;
4,641808;0,0838;1,0050;0,0511;0,1460;0,1840;0,0010;-0,0295;0,0047;0,0112;
4,642673;0,0838;1,0050;0,0511;0,0600;0,0880;-0,1090;-0,0295;0,0047;0,0112;
4,660769;0,0838;1,0050;0,0511;0,0600;0,0880;-0,1090;0,0025;0,0027;-0,0098;
4,662083;0,0838;1,0050;0,0511;-0,0550;0,0730;-0,0870;0,0025;0,0027;-0,0098;
4,681568;0,0838;1,0050;0,0511;-0,0640;0,1000;-0,0290;0,0025;0,0027;-0,0098;
4,702473;0,0848;1,0082;0,0530;-0,0640;0,1000;-0,0290;0,0025;0,0027;-0,0098;
4,703917;0,0848;1,0082;0,0530;0,0760;0,1140;-0,0620;0,0025;0,0027;-0,0098;
4,721211;0,0848;1,0082;0,0530;0,0760;0,1140;-0,0620;0,0085;0,0747;0,0132;
4,722259;0,0848;1,0082;0,0530;0,0440;0,0870;0,0310;0,0085;0,0747;0,0132;
4,743530;0,0848;1,0082;0,0530;-0,0730;0,0050;-0,0170;0,0085;0,0747;0,0132;
4,762826;0,0650;0,9952;0,0349;-0,0730;0,0050;-0,0170;0,0085;0,0747;0,0132;
4,764033;0,0650;0,9952;0,0349;-0,1200;-0,0100;-0,2110;0,0085;0,0747;0,0132;
4,782466;0,0650;0,9952;0,0349;-0,1200;-0,0100;-0,2110;-0,0185;0,0007;0,0232;
4,783126;0,0650;0,9952;0,0349;0,0230;0,0430;-0,1180;-0,0185;0,0007;0,0232;
4,804901;0,0650;0,9952;0,0349;0,1070;0,0860;0,2020;-0,0185;0,0007;0,0232;
4,824359;0,0779;1,0066;0,0745;0,1070;0,0860;0,2020;-0,0185;0,0007;0,0232;
4,825811;0,0779;1,0066;0,0745;0,0000;0,1000;0,1520;-0,0185;0,0007;0,0232;
4,843112;0,0779;1,0066;0,0745;0,0000;0,1000;0,1520;0,0175;-0,0323;0,0002;
4,844561;0,0779;1,0066;0,0745;-0,1220;0,0030;-0,1540;0,0175;-0,0323;0,0002;
4,866335;0,0779;1,0066;0,0745;0,0110;0,0160;-0,1650;0,0175;-0,0323;0,0002;
4,884280;0,0843;1,0082;0,0595;0,0110;0,0160;-0,1650;0,0175;-0,0323;0,0002;
4,884701;0,0843;1,0082;0,0595;0,0620;0,1120;0,0330;0,0175;-0,0323;0,0002;
4,904728;0,0843;1,0082;0,0595;-0,0910;0,1250;0,0400;0,0175;-0,0323;0,0002;
4,925085;0,0843;1,0082;0,0595;-0,0910;0,1250;0,0400;-0,0135;-0,0493;-0,0008;
4,926089;0,0843;1,0082;0,0595;-0,1090;0,0700;0,0720;-0,0135;-0,0493;-0,0008;
4,945413;0,0796;0,9961;0,0595;-0,1090;0,0700;0,0720;-0,0135;-0,0493;-0,0008;
4,946166;0,0796;0,9961;0,0595;0,0340;-0,0100;0,0180;-0,0135;-0,0493;-0,0008;
4,965799;0,0796;0,9961;0,0595;0,1670;0,0440;0,0060;-0,0135;-0,0493;-0,0008;
4,987436;0,0796;0,9961;0,0595;0,1670;0,0440;0,0060;0,0025;0,0287;-0,0038;
4,989903;0,0796;0,9961;0,0595;0,1670;0,0730;0,1070;0,0025;0,0287;-0,0038;
5,005582;0,0813;1,0033;0,0628;0,1670;0,0730;0,1070;0,0025;0,0287;-0,0038;
5,006253;0,0813;1,0033;0,0628;0,0180;0,0600;0,0510;0,0025;0,0287;-0,0038;
5,027661;0,0813;1,0033;0,0628;-0,1190;0,0170;-0,1860;0,0025;0,0287;-0,0038;
5,046309;0,0813;1,0033;0,0628;-0,1190;0,0170;-0,1860;-0,0205;-0,0483;-0,0058;
5,047538;0,0813;1,0033;0,0628;-0,0710;0,0150;-0,2330;-0,0205;-0,0483;-0,0058;
5,069011;0,0806;1,0022;0,0649;-0,0710;0,0150;-0,2330;-0,0205;-0,0483;-0,0058;
5,070024;0,0806;1,0022;0,0649;0,0350;0,0570;0,0940;-0,0205;-0,0483;-0,0058;
5,086250;0,0806;1,0022;0,0649;0,0570;0,0720;0,2480;-0,0205;-0,0483;-0,0058;
5,109869;0,0806;1,0022;0,0649;0,0570;0,0720;0,2480;0,0155;-0,0253;-0,0008;
5,111492;0,0806;1,0022;0,0649;-0,0590;0,0030;0,0060;0,0155;-0,0253;-0,0008;
5,126723;0,0691;0,9998;0,0419;-0,0590;0,0030;0,0060;0,0155;-0,0253;-0,0008;
5,127831;0,0691;0,9998;0,0419;-0,0800;0,0290;-0,1290;0,0155;-0,0253;-0,0008;
5,150324;0,0691;0,9998;0,0419;0,0630;0,0840;-0,0330;0,0155;-0,0253;-0,0008;
5,168083;0,0691;0,9998;0,0419;0,1340;0,0720;0,1680;0,0155;-0,0253;-0,0008;
5,191051;0,0735;1,0010;0,0712;0,1340;0,0720;0,1680;0,0155;-0,0253;-0,0008;
5,191750;0,0735;1,0010;0,0712;0,1340;0,0720;0,1680;0,0065;-0,0253;-0,0198;
5,192278;0,0735;1,0010;0,0712;-0,0480;0,0450;0,1310;0,0065;-0,0253;-0,0198;
5,207704;0,0735;1,0010;0,0712;-0,0560;0,0440;-0,0640;0,0065;-0,0253;-0,0198;
5,231783;0,0735;1,0010;0,0712;0,0850;0,0170;-0,0460;0,0065;-0,0253;-0,0198;
5,249832;0,0980;0,9984;0,0549;0,0850;0,0170;-0,0460;0,0065;-0,0253;-0,0198;
5,250504;0,0980;0,9984;0,0549;0,0850;0,0170;-0,0460;-0,0175;0,0117;-0,0098;
5,250961;0,0980;0,9984;0,0549;0,1800;0,0180;-0,0200;-0,0175;0,0117;-0,0098;
5,272816;0,0980;0,9984;0,0549;-0,0550;0,0040;-0,0730;-0,0175;0,0117;-0,0098;
5,290700;0,0980;0,9984;0,0549;-0,1120;0,0710;-0,0460;-0,0175;0,0117;-0,0098;
5,313502;0,0794;1,0157;0,0583;-0,1120;0,0710;-0,0460;-0,0175;0,0117;-0,0098;
5,315438;0,0794;1,0157;0,0583;-0,1120;0,0710;-0,0460;-0,0135;-0,0143;0,0012;
5,316390;0,0794;1,0157;0,0583;0,0220;0,1800;0,0050;-0,0135;-0,0143;0,0012;
5,331356;0,0794;1,0157;0,0583;0,0980;0,2900;-0,0340;-0,0135;-0,0143;0,0012;
5,354216;0,0794;1,0157;0,0583;0,0350;0,4530;-0,0460;-0,0135;-0,0143;0,0012;
5,371582;0,0686;1,0746;0,0566;0,0350;0,4530;-0,0460;-0,0135;-0,0143;0,0012;
5,373213;0,0686;1,0746;0,0566;0,0350;0,4530;-0,0460;-0,0305;-0,0363;-0,0028;
5,374074;0,0686;1,0746;0,0566;-0,0720;0,7650;-0,0080;-0,0305;-0,0363;-0,0028;
5,393589;0,0686;1,0746;0,0566;-0,0100;1,3500;-0,0710;-0,0305;-0,0363;-0,0028;
5,411379;0,0686;1,0746;0,0566;0,2000;2,2770;-0,6160;-0,0305;-0,0363;-0,0028;
5,434893;0,1290;1,3635;-0,0799;0,2000;2,2770;-0,6160;-0,0305;-0,0363;-0,0028;
5,436474;0,1290;1,3635;-0,0799;0,5040;3,6020;-1,3840;-0,0305;-0,0363;-0,0028;
5,451761;0,1290;1,3635;-0,0799;0,5040;3,6020;-1,3840;-0,5435;-0,1363;-0,0158;
5,452476;0,1290;1,3635;-0,0799;0,8980;4,6030;-0,9640;-0,5435;-0,1363;-0,0158;
5,475269;0,1290;1,3635;-0,0799;1,3180;4,6520;0,5140;-0,5435;-0,1363;-0,0158;
5,493564;0,1573;1,4361;0,2022;1,3180;4,6520;0,5140;-0,5435;-0,1363;-0,0158;
5,495206;0,1573;1,4361;0,2022;0,8440;4,3270;1,0890;-0,5435;-0,1363;-0,0158;
5,516577;0,1573;1,4361;0,2022;0,8440;4,3270;1,0890;0,2245;-0,3983;-0,2988;
5,517728;0,1573;1,4361;0,2022;0,3000;4,2130;-0,1310;0,2245;-0,3983;-0,2988;
5,533620;0,1573;1,4361;0,2022;0,4040;3,9730;-0,9270;0,2245;-0,3983;-0,2988;
5,556647;0,1344;1,3755;-0,0130;0,4040;3,9730;-0,9270;0,2245;-0,3983;-0,2988;
5,557499;0,1344;1,3755;-0,0130;0,7160;3,7060;-0,8210;0,2245;-0,3983;-0,2988;
5,573611;0,1344;1,3755;-0,0130;0,7160;3,7060;-0,8210;0,5015;-0,5343;-0,0728;
5,575201;0,1344;1,3755;-0,0130;0,6830;3,3450;-0,3740;0,5015;-0,5343;-0,0728;
5,597720;0,1344;1,3755;-0,0130;0,7190;2,8070;0,4000;0,5015;-0,5343;-0,0728;
5,615581;0,1146;1,2181;0,1416;0,7190;2,8070;0,4000;0,5015;-0,5343;-0,0728;
5,616444;0,1146;1,2181;0,1416;0,5520;2,1450;1,0670;0,5015;-0,5343;-0,0728;
5,636930;0,1146;1,2181;0,1416;0,5520;2,1450;1,0670;1,2445;-0,2863;0,0592;
5,638411;0,1146;1,2181;0,1416;-0,2560;1,7590;0,8960;1,2445;-0,2863;0,0592;
5,656087;0,1146;1,2181;0,1416;-0,5130;1,3930;0,6850;1,2445;-0,2863;0,0592;
5,678912;0,0071;1,0627;0,0097;-0,5130;1,3930;0,6850;1,2445;-0,2863;0,0592;
5,680580;0,0071;1,0627;0,0097;-0,5170;0,6260;0,5190;1,2445;-0,2863;0,0592;
5,696262;0,0071;1,0627;0,0097;-0,7430;-0,4190;0,1580;1,2445;-0,2863;0,0592;
5,718908;0,0071;1,0627;0,0097;-0,7430;-0,4190;0,1580;1,1055;-0,3443;0,0502;
5,720680;0,0071;1,0627;0,0097;-1,2520;-1,2440;-0,0200;1,1055;-0,3443;0,0502;
5,737015;-0,1102;0,8645;-0,0736;-1,2520;-1,2440;-0,0200;1,1055;-0,3443;0,0502;
5,740179;-0,1102;0,8645;-0,0736;-1,6770;-1,2520;0,4080;1,1055;-0,3443;0,0502;
5,759746;-0,1102;0,8645;-0,0736;-2,1380;-1,6400;1,9000;1,1055;-0,3443;0,0502;
5,777784;-0,1102;0,8645;-0,0736;-2,1380;-1,6400;1,9000;1,1235;-0,7403;0,1142;
5,778880;-0,1102;0,8645;-0,0736;-2,0680;-2,6990;2,7890;1,1235;-0,7403;0,1142;
5,799282;-0,1378;0,6420;0,0241;-2,0680;-2,6990;2,7890;1,1235;-0,7403;0,1142;
5,800089;-0,1378;0,6420;0,0241;-1,9530;-3,3520;1,9760;1,1235;-0,7403;0,1142;
5,818468;-0,1378;0,6420;0,0241;-1,7020;-3,7390;0,7190;1,1235;-0,7403;0,1142;
5,841120;-0,1378;0,6420;0,0241;-1,7020;-3,7390;0,7190;0,6385;0,1847;0,1112;
5,842074;-0,1378;0,6420;0,0241;-1,8780;-3,6450;0,2550;0,6385;0,1847;0,1112;
5,858522;-0,1353;0,6366;-0,0792;-1,8780;-3,6450;0,2550;0,6385;0,1847;0,1112;
5,860162;-0,1353;0,6366;-0,0792;-2,0090;-3,2780;1,5020;0,6385;0,1847;0,1112;
5,882783;-0,1353;0,6366;-0,0792;-1,5140;-3,7030;2,8190;0,6385;0,1847;0,1112;
5,899625;-0,1353;0,6366;-0,0792;-1,5140;-3,7030;2,8190;0,8045;0,4837;-0,1688;
5,900587;-0,1353;0,6366;-0,0792;-1,2820;-4,3910;2,7560;0,8045;0,4837;-0,1688;
5,921399;-0,0967;0,4686;-0,1051;-1,2820;-4,3910;2,7560;0,8045;0,4837;-0,1688;
5,922433;-0,0967;0,4686;-0,1051;-1,6690;-4,8290;1,6050;0,8045;0,4837;-0,1688;
5,940832;-0,0967;0,4686;-0,1051;-1,9580;-5,0080;0,6650;0,8045;0,4837;-0,1688;
5,963170;-0,0967;0,4686;-0,1051;-2,0550;-4,9520;0,7680;0,8045;0,4837;-0,1688;
5,981325;-0,1619;0,4537;-0,1183;-2,0550;-4,9520;0,7680;0,8045;0,4837;-0,1688;
5,982056;-0,1619;0,4537;-0,1183;-2,0550;-4,9520;0,7680;-0,2935;1,2577;-0,4028;
5,982535;-0,1619;0,4537;-0,1183;-2,2780;-4,9710;1,5070;-0,2935;1,2577;-0,4028;
6,002877;-0,1619;0,4537;-0,1183;-2,4710;-5,0070;2,0950;-0,2935;1,2577;-0,4028;
6,022160;-0,1619;0,4537;-0,1183;-2,3580;-4,7800;1,9390;-0,2935;1,2577;-0,4028;
6,044480;-0,0626;0,5355;-0,1210;-2,3580;-4,7800;1,9390;-0,2935;1,2577;-0,4028;
6,046143;-0,0626;0,5355;-0,1210;-2,3580;-4,7800;1,9390;-0,3115;1,0987;-0,3688;
6,047502;-0,0626;0,5355;-0,1210;-1,2700;-4,2260;1,2740;-0,3115;1,0987;-0,3688;
6,061460;-0,0626;0,5355;-0,1210;-1,1300;-3,8850;0,6730;-0,3115;1,0987;-0,3688;
6,084868;-0,0626;0,5355;-0,1210;-1,9410;-3,1450;1,1030;-0,3115;1,0987;-0,3688;
6,102722;-0,1740;0,6997;0,0049;-1,9410;-3,1450;1,1030;-0,3115;1,0987;-0,3688;
6,103682;-0,1740;0,6997;0,0049;-1,9410;-3,1450;1,1030;-0,6965;1,4537;-0,2248;
6,104340;-0,1740;0,6997;0,0049;-2,2860;-2,7190;2,0960;-0,6965;1,4537;-0,2248;
6,125165;-0,1740;0,6997;0,0049;-0,7760;-2,5550;2,6840;-0,6965;1,4537;-0,2248;
6,143749;-0,1740;0,6997;0,0049;0,0380;-1,8190;1,9920;-0,6965;1,4537;-0,2248;
6,166241;-0,0014;0,9031;-0,1307;0,0380;-1,8190;1,9920;-0,6965;1,4537;-0,2248;
6,168216;-0,0014;0,9031;-0,1307;0,0380;-1,8190;1,9920;-0,3785;1,3407;-0,4578;
6,169376;-0,0014;0,9031;-0,1307;-0,6490;-0,7810;0,5060;-0,3785;1,3407;-0,4578;
6,183978;-0,0014;0,9031;-0,1307;-0,5230;-0,1080;-0,5060;-0,3785;1,3407;-0,4578;
6,206684;-0,0014;0,9031;-0,1307;0,1280;-0,0740;0,4220;-0,3785;1,3407;-0,4578;
6,224964;0,0352;1,0707;0,0468;0,1280;-0,0740;0,4220;-0,3785;1,3407;-0,4578;
6,226160;0,0352;1,0707;0,0468;-0,1290;0,7710;1,6890;-0,3785;1,3407;-0,4578;
6,246861;0,0352;1,0707;0,0468;-0,1290;0,7710;1,6890;-1,3715;1,4947;-0,3458;
6,248989;0,0352;1,0707;0,0468;-0,5400;1,9080;2,5640;-1,3715;1,4947;-0,3458;
6,265179;0,0352;1,0707;0,0468;0,4480;1,8050;3,2130;-1,3715;1,4947;-0,3458;
6,288030;0,1554;1,1259;0,1712;0,4480;1,8050;3,2130;-1,3715;1,4947;-0,3458;
6,290082;0,1554;1,1259;0,1712;1,1270;1,2490;2,2450;-1,3715;1,4947;-0,3458;
6,305596;0,1554;1,1259;0,1712;1,1270;1,2490;2,2450;-0,5035;1,1727;-0,1498;
6,307997;0,1554;1,1259;0,1712;0,9100;1,2970;-0,2570;-0,5035;1,1727;-0,1498;
6,328584;0,1554;1,1259;0,1712;1,1770;1,8360;-2,0050;-0,5035;1,1727;-0,1498;
6,346690;0,2088;1,1788;-0,0636;1,1770;1,8360;-2,0050;-0,5035;1,1727;-0,1498;
6,347873;0,2088;1,1788;-0,0636;1,6820;1,7500;-0,4940;-0,5035;1,1727;-0,1498;
6,368246;0,2088;1,1788;-0,0636;1,6820;1,7500;-0,4940;-0,9025;0,8437;0,1292;
6,369312;0,2088;1,1788;-0,0636;2,2340;1,4920;1,7450;-0,9025;0,8437;0,1292;
6,388342;0,2088;1,1788;-0,0636;3,4960;1,9590;1,9220;-0,9025;0,8437;0,1292;
6,409648;0,4296;1,2660;-0,1307;3,4960;1,9590;1,9220;-0,9025;0,8437;0,1292;
6,411518;0,4296;1,2660;-0,1307;3,8380;2,6010;-1,6520;-0,9025;0,8437;0,1292;
6,428006;0,4296;1,2660;-0,1307;3,8380;2,6010;-1,6520;-1,3525;0,1907;-0,3858;
6,430090;0,4296;1,2660;-0,1307;2,6850;3,3420;-3,7940;-1,3525;0,1907;-0,3858;
6,449985;0,4296;1,2660;-0,1307;1,7390;3,4550;-1,0320;-1,3525;0,1907;-0,3858;
6,469576;0,2051;1,3722;0,3130;1,7390;3,4550;-1,0320;-1,3525;0,1907;-0,3858;
6,471572;0,2051;1,3722;0,3130;1,8300;3,7030;1,9370;-1,3525;0,1907;-0,3858;
6,489860;0,2051;1,3722;0,3130;2,0650;4,1430;1,7270;-1,3525;0,1907;-0,3858;
6,510125;0,2051;1,3722;0,3130;2,0650;4,1430;1,7270;-0,6665;0,0307;-0,0918;
6,511293;0,2051;1,3722;0,3130;1,9760;4,3010;0,6250;-0,6665;0,0307;-0,0918;
6,530020;0,1742;1,4131;0,1294;1,9760;4,3010;0,6250;-0,6665;0,0307;-0,0918;
6,531598;0,1742;1,4131;0,1294;1,5920;4,1620;-0,3270;-0,6665;0,0307;-0,0918;
6,550793;0,1742;1,4131;0,1294;1,3600;3,9790;-0,4240;-0,6665;0,0307;-0,0918;
6,573548;0,1742;1,4131;0,1294;1,3600;3,9790;-0,4240;-0,0815;0,7737;0,1662;
6,574529;0,1742;1,4131;0,1294;1,1230;3,9160;-0,0990;-0,0815;0,7737;0,1662;
6,592102;0,0918;1,4270;0,1612;1,1230;3,9160;-0,0990;-0,0815;0,7737;0,1662;
6,593239;0,0918;1,4270;0,1612;0,7680;4,3090;-0,0740;-0,0815;0,7737;0,1662;
6,612724;0,0918;1,4270;0,1612;1,0050;4,6800;-0,5410;-0,0815;0,7737;0,1662;
6,632038;0,0918;1,4270;0,1612;1,0050;4,6800;-0,5410;0,4945;0,2957;0,0312;
6,633673;0,0918;1,4270;0,1612;1,2660;5,1810;-1,5850;0,4945;0,2957;0,0312;
6,652339;0,1265;1,5905;-0,0511;1,2660;5,1810;-1,5850;0,4945;0,2957;0,0312;
6,653788;0,1265;1,5905;-0,0511;1,0900;5,8770;-1,8960;0,4945;0,2957;0,0312;
6,672229;0,1265;1,5905;-0,0511;0,3980;6,1700;-1,5560;0,4945;0,2957;0,0312;
6,692927;0,1265;1,5905;-0,0511;0,3980;6,1700;-1,5560;-0,1675;-0,0563;-0,3528;
6,694407;0,1265;1,5905;-0,0511;0,5350;6,0200;-0,9820;-0,1675;-0,0563;-0,3528;
6,713599;0,0941;1,5770;0,1602;0,5350;6,0200;-0,9820;-0,1675;-0,0563;-0,3528;
6,715443;0,0941;1,5770;0,1602;0,9310;5,7390;0,1670;-0,1675;-0,0563;-0,3528;
6,734136;0,0941;1,5770;0,1602;0,3780;4,8160;1,7820;-0,1675;-0,0563;-0,3528;
6,754094;0,0941;1,5770;0,1602;0,0520;2,6400;2,2930;-0,1675;-0,0563;-0,3528;
6,775233;0,0455;1,1504;0,3205;0,0520;2,6400;2,2930;-0,1675;-0,0563;-0,3528;
6,777138;0,0455;1,1504;0,3205;0,0520;2,6400;2,2930;1,0135;-0,4653;-0,2328;
6,778218;0,0455;1,1504;0,3205;0,6480;1,5280;1,9710;1,0135;-0,4653;-0,2328;
6,793525;0,0455;1,1504;0,3205;1,0330;1,0930;2,0270;1,0135;-0,4653;-0,2328;
6,815570;0,0455;1,1504;0,3205;1,2700;0,2250;1,9780;1,0135;-0,4653;-0,2328;
6,835001;0,1023;0,9351;0,1788;1,2700;0,2250;1,9780;1,0135;-0,4653;-0,2328;
6,835986;0,1023;0,9351;0,1788;1,2700;0,2250;1,9780;1,9725;0,2147;-0,1008;
6,836986;0,1023;0,9351;0,1788;1,2960;-0,6460;1,5320;1,9725;0,2147;-0,1008;
6,855181;0,1023;0,9351;0,1788;1,6400;-1,9670;1,1880;1,9725;0,2147;-0,1008;
6,875826;0,1023;0,9351;0,1788;2,0080;-3,0100;0,7150;1,9725;0,2147;-0,1008;
6,897310;0,1691;0,6208;-0,1002;2,0080;-3,0100;0,7150;1,9725;0,2147;-0,1008;
6,898803;0,1691;0,6208;-0,1002;2,0080;-3,0100;0,7150;1,8915;0,1837;-0,1148;
6,899785;0,1691;0,6208;-0,1002;1,9970;-3,6680;0,0810;1,8915;0,1837;-0,1148;
6,916523;0,1691;0,6208;-0,1002;1,6200;-3,7050;0,0590;1,8915;0,1837;-0,1148;
6,937984;0,1691;0,6208;-0,1002;1,6030;-3,6450;0,5860;1,8915;0,1837;-0,1148;
6,957393;0,1341;0,5367;-0,0755;1,6030;-3,6450;0,5860;1,8915;0,1837;-0,1148;
6,959109;0,1341;0,5367;-0,0755;1,6030;-3,6450;0,5860;1,2335;-0,3173;-0,0588;
6,960307;0,1341;0,5367;-0,0755;1,7340;-4,3450;1,2080;1,2335;-0,3173;-0,0588;
6,978110;0,1341;0,5367;-0,0755;1,8640;-4,6060;1,6610;1,2335;-0,3173;-0,0588;
6,997836;0,1341;0,5367;-0,0755;1,7360;-4,7040;1,3320;1,2335;-0,3173;-0,0588;
7,018638;0,1297;0,4989;-0,2241;1,7360;-4,7040;1,3320;1,2335;-0,3173;-0,0588;
7,019695;0,1297;0,4989;-0,2241;1,6910;-4,5720;0,3990;1,2335;-0,3173;-0,0588;
7,038251;0,1297;0,4989;-0,2241;1,6910;-4,5720;0,3990;0,8785;-0,3333;0,0892;
7,039478;0,1297;0,4989;-0,2241;1,8240;-4,4150;-0,0290;0,8785;-0,3333;0,0892;
7,059338;0,1297;0,4989;-0,2241;1,6020;-4,2940;0,3980;0,8785;-0,3333;0,0892;
7,079163;0,1048;0,5434;-0,2170;1,6020;-4,2940;0,3980;0,8785;-0,3333;0,0892;
7,080345;0,1048;0,5434;-0,2170;1,4460;-4,0230;0,8480;0,8785;-0,3333;0,0892;
7,099975;0,1048;0,5434;-0,2170;1,4460;-4,0230;0,8480;0,2165;-0,4723;0,3152;
7,101116;0,1048;0,5434;-0,2170;1,4070;-3,7640;0,8000;0,2165;-0,4723;0,3152;
7,119417;0,1048;0,5434;-0,2170;1,5070;-3,5810;0,3580;0,2165;-0,4723;0,3152;
7,141004;0,1118;0,5719;-0,2421;1,5070;-3,5810;0,3580;0,2165;-0,4723;0,3152;
7,142578;0,1118;0,5719;-0,2421;1,4120;-3,7200;0,6680;0,2165;-0,4723;0,3152;
7,159176;0,1118;0,5719;-0,2421;1,4120;-3,7200;0,6680;-0,1275;-0,4373;0,4922;
7,161387;0,1118;0,5719;-0,2421;1,2750;-3,6200;1,3150;-0,1275;-0,4373;0,4922;
7,181107;0,1118;0,5719;-0,2421;1,0310;-3,2080;1,3550;-0,1275;-0,4373;0,4922;
7,200673;0,0953;0,6443;-0,1789;1,0310;-3,2080;1,3550;-0,1275;-0,4373;0,4922;
7,201644;0,0953;0,6443;-0,1789;1,0630;-3,0410;1,2180;-0,1275;-0,4373;0,4922;
7,222007;0,0953;0,6443;-0,1789;1,0630;-3,0410;1,2180;0,0455;-1,0643;0,5482;
7,223207;0,0953;0,6443;-0,1789;1,1520;-3,0870;1,4630;0,0455;-1,0643;0,5482;
7,241848;0,0953;0,6443;-0,1789;1,3560;-3,0300;1,3750;0,0455;-1,0643;0,5482;
7,262564;0,1573;0,6883;-0,2884;1,3560;-3,0300;1,3750;0,0455;-1,0643;0,5482;
7,263981;0,1573;0,6883;-0,2884;1,5270;-2,6090;0,1330;0,0455;-1,0643;0,5482;
7,282005;0,1573;0,6883;-0,2884;0,8240;-2,0880;-1,0590;0,0455;-1,0643;0,5482;
7,302709;0,1573;0,6883;-0,2884;0,8240;-2,0880;-1,0590;-1,0265;-0,2403;0,5722;
7,303704;0,1573;0,6883;-0,2884;0,5400;-1,1720;-0,2710;-1,0265;-0,2403;0,5722;
7,323112;0,0920;0,8818;-0,1579;0,5400;-1,1720;-0,2710;-1,0265;-0,2403;0,5722;
7,324608;0,0920;0,8818;-0,1579;0,6540;-0,8540;0,9220;-1,0265;-0,2403;0,5722;
7,343053;0,0920;0,8818;-0,1579;0,7970;-1,4930;0,7440;-1,0265;-0,2403;0,5722;
7,363257;0,0920;0,8818;-0,1579;0,7970;-1,4930;0,7440;-1,0355;-0,9703;0,2792;
7,364432;0,0920;0,8818;-0,1579;0,4640;-1,2230;0,8090;-1,0355;-0,9703;0,2792;
7,384459;-0,0019;1,0020;-0,1095;0,4640;-1,2230;0,8090;-1,0355;-0,9703;0,2792;
7,385520;-0,0019;1,0020;-0,1095;-0,3080;0,1760;0,7680;-1,0355;-0,9703;0,2792;
7,403986;-0,0019;1,0020;-0,1095;-0,8360;-0,0410;0,2400;-1,0355;-0,9703;0,2792;
7,425459;-0,0019;1,0020;-0,1095;-0,8360;-0,0410;0,2400;-1,2005;-1,1273;0,5072;
7,427245;-0,0019;1,0020;-0,1095;-0,7160;-0,4560;0,4170;-1,2005;-1,1273;0,5072;
7,443576;0,0164;1,0434;0,0649;-0,7160;-0,4560;0,4170;-1,2005;-1,1273;0,5072;
7,445103;0,0164;1,0434;0,0649;-0,3120;0,4840;1,7510;-1,2005;-1,1273;0,5072;
7,465575;0,0164;1,0434;0,0649;-0,7250;1,3610;2,9150;-1,2005;-1,1273;0,5072;
7,485168;0,0164;1,0434;0,0649;-0,7250;1,3610;2,9150;-0,8715;-0,9563;0,4822;
7,486401;0,0164;1,0434;0,0649;-1,2200;1,0350;2,0750;-0,8715;-0,9563;0,4822;
7,506152;-0,0615;1,0835;0,0123;-1,2200;1,0350;2,0750;-0,8715;-0,9563;0,4822;
7,507493;-0,0615;1,0835;0,0123;-1,2660;0,8400;0,6350;-0,8715;-0,9563;0,4822;
7,524689;-0,0615;1,0835;0,0123;-0,7150;1,2900;0,6120;-0,8715;-0,9563;0,4822;
7,546280;-0,0615;1,0835;0,0123;-0,1360;1,8230;2,1130;-0,8715;-0,9563;0,4822;
7,566431;0,0303;1,1807;0,2570;-0,1360;1,8230;2,1130;-0,8715;-0,9563;0,4822;
7,567683;0,0303;1,1807;0,2570;-0,1360;1,8230;2,1130;-0,7685;-0,4303;0,1932;
7,568438;0,0303;1,1807;0,2570;-0,6170;1,7980;2,5480;-0,7685;-0,4303;0,1932;
7,586415;0,0303;1,1807;0,2570;-2,3100;1,4600;0,3500;-0,7685;-0,4303;0,1932;
7,607110;0,0303;1,1807;0,2570;-3,2510;1,1930;-1,6580;-0,7685;-0,4303;0,1932;
7,628989;-0,1581;1,1320;-0,0870;-3,2510;1,1930;-1,6580;-0,7685;-0,4303;0,1932;
7,630069;-0,1581;1,1320;-0,0870;-3,2510;1,1930;-1,6580;-0,5835;-0,8123;0,5142;
7,630797;-0,1581;1,1320;-0,0870;-2,5910;1,3400;-1,1200;-0,5835;-0,8123;0,5142;
7,646128;-0,1581;1,1320;-0,0870;-1,0860;1,6420;0,2510;-0,5835;-0,8123;0,5142;
7,669236;-0,1581;1,1320;-0,0870;-0,6180;2,5290;0,3820;-0,5835;-0,8123;0,5142;
7,687649;0,0264;1,3312;0,0400;-0,6180;2,5290;0,3820;-0,5835;-0,8123;0,5142;
7,688805;0,0264;1,3312;0,0400;-0,6180;2,5290;0,3820;-0,6945;-0,4223;-0,0238;
7,689433;0,0264;1,3312;0,0400;-1,0350;3,3300;-0,1870;-0,6945;-0,4223;-0,0238;
7,709100;0,0264;1,3312;0,0400;-1,3360;2,9820;-0,4430;-0,6945;-0,4223;-0,0238;
7,728176;0,0264;1,3312;0,0400;-1,5570;2,7540;0,1040;-0,6945;-0,4223;-0,0238;
7,750061;-0,0792;1,2897;0,1727;-1,5570;2,7540;0,1040;-0,6945;-0,4223;-0,0238;
7,751185;-0,0792;1,2897;0,1727;-1,5570;2,7540;0,1040;-0,3865;-0,2903;-0,2018;
7,751883;-0,0792;1,2897;0,1727;-1,9620;2,9330;0,8010;-0,3865;-0,2903;-0,2018;
7,768492;-0,0792;1,2897;0,1727;-2,0540;2,9630;1,1590;-0,3865;-0,2903;-0,2018;
7,791587;-0,0792;1,2897;0,1727;-1,6200;2,6230;0,5690;-0,3865;-0,2903;-0,2018;
7,809503;0,0108;1,1865;0,0470;-1,6200;2,6230;0,5690;-0,3865;-0,2903;-0,2018;
7,810813;0,0108;1,1865;0,0470;-1,0640;1,9260;-0,4950;-0,3865;-0,2903;-0,2018;
7,832339;0,0108;1,1865;0,0470;-1,0640;1,9260;-0,4950;0,1515;-0,2803;-0,0068;
7,833589;0,0108;1,1865;0,0470;-0,6320;1,5010;-0,9760;0,1515;-0,2803;-0,0068;
7,850373;0,0108;1,1865;0,0470;-0,0330;1,1440;-0,9620;0,1515;-0,2803;-0,0068;
7,873729;0,1461;1,0751;0,0104;-0,0330;1,1440;-0,9620;0,1515;-0,2803;-0,0068;
7,874746;0,1461;1,0751;0,0104;0,2780;0,8270;-0,7670;0,1515;-0,2803;-0,0068;
7,891363;0,1461;1,0751;0,0104;0,2780;0,8270;-0,7670;0,0005;-0,2233;-0,1578;
7,893004;0,1461;1,0751;0,0104;0,1930;0,4560;-0,4320;0,0005;-0,2233;-0,1578;
7,913496;0,1461;1,0751;0,0104;-0,0360;0,2620;-0,1970;0,0005;-0,2233;-0,1578;
7,932411;0,0857;0,9915;0,0781;-0,0360;0,2620;-0,1970;0,0005;-0,2233;-0,1578;
7,933099;0,0857;0,9915;0,0781;-0,2400;0,0000;-0,0800;0,0005;-0,2233;-0,1578;
7,953679;0,0857;0,9915;0,0781;-0,2400;0,0000;-0,0800;0,0895;-0,0913;-0,0638;
7,954686;0,0857;0,9915;0,0781;-0,1140;-0,1800;-0,0480;0,0895;-0,0913;-0,0638;
7,972432;0,0857;0,9915;0,0781;0,0720;-0,1280;0,1180;0,0895;-0,0913;-0,0638;
7,995092;0,1236;0,9947;0,0952;0,0720;-0,1280;0,1180;0,0895;-0,0913;-0,0638;
7,996048;0,1236;0,9947;0,0952;0,1660;0,0180;0,1310;0,0895;-0,0913;-0,0638;
8,012342;0,1236;0,9947;0,0952;0,1660;0,0180;0,1310;0,0715;0,0247;-0,1148;
8,013434;0,1236;0,9947;0,0952;0,0090;0,0140;-0,0790;0,0715;0,0247;-0,1148;
8,035613;0,1236;0,9947;0,0952;-0,0820;0,0910;-0,1100;0,0715;0,0247;-0,1148;
8,053729;0,0972;1,0008;0,0673;-0,0820;0,0910;-0,1100;0,0715;0,0247;-0,1148;
8,054831;0,0972;1,0008;0,0673;-0,0200;0,0740;-0,0780;0,0715;0,0247;-0,1148;
8,075255;0,0972;1,0008;0,0673;0,0570;0,0580;-0,1650;0,0715;0,0247;-0,1148;
8,094587;0,0972;1,0008;0,0673;0,0570;0,0580;-0,1650;0,0065;-0,0083;-0,0568;
8,097016;0,0972;1,0008;0,0673;0,1030;0,2330;-0,1240;0,0065;-0,0083;-0,0568;
8,115782;0,1053;1,0229;0,0982;0,1030;0,2330;-0,1240;0,0065;-0,0083;-0,0568;
8,117055;0,1053;1,0229;0,0982;0,0830;0,2750;0,2410;0,0065;-0,0083;-0,0568;
8,135366;0,1053;1,0229;0,0982;0,1500;0,1400;0,3210;0,0065;-0,0083;-0,0568;
8,157470;0,1053;1,0229;0,0982;0,1500;0,1400;0,3210;0,0615;0,0208;-0,0378;
8,158432;0,1053;1,0229;0,0982;0,2230;0,0850;-0,0290;0,0615;0,0208;-0,0378;
8,174787;0,1151;1,0103;0,0605;0,2230;0,0850;-0,0290;0,0615;0,0208;-0,0378;
8,175750;0,1151;1,0103;0,0605;0,1630;0,1520;-0,1090;0,0615;0,0208;-0,0378;
8,198172;0,1151;1,0103;0,0605;0,0080;0,1920;0,0410;0,0615;0,0208;-0,0378;
8,215951;0,1151;1,0103;0,0605;0,0080;0,1920;0,0410;0,0405;0,0818;-0,0008;
8,216521;0,1151;1,0103;0,0605;0,0120;0,0690;0,0680;0,0405;0,0818;-0,0008;
8,237910;0,1092;1,0008;0,0693;0,0120;0,0690;0,0680;0,0405;0,0818;-0,0008;
8,238991;0,1092;1,0008;0,0693;0,1130;0,0700;-0,0200;0,0405;0,0818;-0,0008;
8,257034;0,1092;1,0008;0,0693;0,0530;0,1120;0,0670;0,0405;0,0818;-0,0008;
8,279885;0,1092;1,0008;0,0693;0,0530;0,1120;0,0670;0,0205;0,1168;0,0252;
8,281695;0,1092;1,0008;0,0693;0,0210;0,1260;0,1000;0,0205;0,1168;0,0252;
8,299061;0,0980;1,0028;0,0637;0,0210;0,1260;0,1000;0,0205;0,1168;0,0252;
8,299683;0,0980;1,0028;0,0637;-0,0070;0,0850;-0,0820;0,0205;0,1168;0,0252;
8,319069;0,0980;1,0028;0,0637;-0,0080;0,0170;-0,0660;0,0205;0,1168;0,0252;
8,337959;0,0980;1,0028;0,0637;-0,0710;0,0850;0,0230;0,0205;0,1168;0,0252;
8,361171;0,0855;1,0022;0,0966;-0,0710;0,0850;0,0230;0,0205;0,1168;0,0252;
8,362521;0,0855;1,0022;0,0966;-0,0710;0,0850;0,0230;-0,0225;-0,0102;0,0022;
8,363710;0,0855;1,0022;0,0966;-0,1160;0,0860;0,2190;-0,0225;-0,0102;0,0022;
8,377727;0,0855;1,0022;0,0966;-0,1090;0,0590;0,2640;-0,0225;-0,0102;0,0022;
8,401483;0,0855;1,0022;0,0966;-0,1040;0,0180;0,0700;-0,0225;-0,0102;0,0022;
8,419415;0,0857;0,9964;0,0651;-0,1040;0,0180;0,0700;-0,0225;-0,0102;0,0022;
8,420877;0,0857;0,9964;0,0651;-0,1040;0,0180;0,0700;0,0355;0,1278;0,0392;
8,421642;0,0857;0,9964;0,0651;-0,1020;0,0170;-0,1060;0,0355;0,1278;0,0392;
8,441317;0,0857;0,9964;0,0651;0,0010;0,0030;-0,1210;0,0355;0,1278;0,0392;
8,460383;0,0857;0,9964;0,0651;0,1260;0,0310;-0,0230;0,0355;0,1278;0,0392;
8,483653;0,0980;0,9908;0,0644;0,1260;0,0310;-0,0230;0,0355;0,1278;0,0392;
8,485066;0,0980;0,9908;0,0644;0,1260;0,0310;-0,0230;-0,0055;-0,0172;-0,0318;
8,485854;0,0980;0,9908;0,0644;0,0070;-0,0370;-0,0850;-0,0055;-0,0172;-0,0318;
8,499349;0,0980;0,9908;0,0644;-0,0750;-0,0250;-0,0670;-0,0055;-0,0172;-0,0318;
8,523106;0,0980;0,9908;0,0644;-0,1270;0,0540;-0,0500;-0,0055;-0,0172;-0,0318;
8,541973;0,0877;1,0047;0,0630;-0,1270;0,0540;-0,0500;-0,0055;-0,0172;-0,0318;
8,542911;0,0877;1,0047;0,0630;-0,1270;0,0540;-0,0500;-0,0235;-0,0462;-0,0058;
8,543589;0,0877;1,0047;0,0630;-0,0520;0,0940;-0,0840;-0,0235;-0,0462;-0,0058;
8,562731;0,0877;1,0047;0,0630;0,0780;0,0950;0,1080;-0,0235;-0,0462;-0,0058;
8,582130;0,0877;1,0047;0,0630;0,0760;0,0550;0,0870;-0,0235;-0,0462;-0,0058;
8,604429;0,0820;0,9952;0,0756;0,0760;0,0550;0,0870;-0,0235;-0,0462;-0,0058;
8,605925;0,0820;0,9952;0,0756;-0,1000;0,0130;0,0170;-0,0235;-0,0462;-0,0058;
8,623722;0,0820;0,9952;0,0756;-0,1000;0,0130;0,0170;-0,0145;-0,0273;-0,0128;
8,625936;0,0820;0,9952;0,0756;-0,0780;0,0000;0,1650;-0,0145;-0,0273;-0,0128;
8,644014;0,0820;0,9952;0,0756;0,0910;0,0690;0,0150;-0,0145;-0,0273;-0,0128;
8,663307;0,0972;1,0022;0,0720;0,0910;0,0690;0,0150;-0,0145;-0,0273;-0,0128;
8,664561;0,0972;1,0022;0,0720;0,0360;0,0820;-0,0370;-0,0145;-0,0273;-0,0128;
8,684225;0,0972;1,0022;0,0720;0,0360;0,0820;-0,0370;-0,0175;0,0117;-0,0028;
8,684684;0,0972;1,0022;0,0720;-0,0270;-0,0110;0,1750;-0,0175;0,0117;-0,0028;
8,704122;0,0972;1,0022;0,0720;0,0870;0,0160;0,0000;-0,0175;0,0117;-0,0028;
8,726119;0,1092;1,0059;0,0456;0,0870;0,0160;0,0000;-0,0175;0,0117;-0,0028;
8,727055;0,1092;1,0059;0,0456;0,1430;0,1100;-0,2870;-0,0175;0,0117;-0,0028;
8,747862;0,1092;1,0059;0,0456;0,1430;0,1100;-0,2870;-0,0415;-0,0073;-0,0128;
8,748918;0,1092;1,0059;0,0456;0,0340;0,1380;-0,0170;-0,0415;-0,0073;-0,0128;
8,767230;0,1092;1,0059;0,0456;0,0090;0,1940;0,3070;-0,0415;-0,0073;-0,0128;
8,785105;0,1034;1,0106;0,0822;0,0090;0,1940;0,3070;-0,0415;-0,0073;-0,0128;
8,786750;0,1034;1,0106;0,0822;0,0840;0,1670;0,0500;-0,0415;-0,0073;-0,0128;
8,808545;0,1034;1,0106;0,0822;0,0840;0,1670;0,0500;0,0095;0,0817;0,0042;
8,809806;0,1034;1,0106;0,0822;0,1160;0,1250;-0,2740;0,0095;0,0817;0,0042;
8,824850;0,1034;1,0106;0,0822;-0,0420;0,1240;-0,1140;0,0095;0,0817;0,0042;
8,847479;0,0848;1,0071;0,0847;-0,0420;0,1240;-0,1140;0,0095;0,0817;0,0042;
8,848618;0,0848;1,0071;0,0847;-0,0890;0,1240;0,0980;0,0095;0,0817;0,0042;
8,866370;0,0848;1,0071;0,0847;-0,0090;0,0410;-0,0400;0,0095;0,0817;0,0042;
8,889363;0,0848;1,0071;0,0847;-0,0090;0,0410;-0,0400;0,0125;-0,0423;0,0052;
8,891331;0,0848;1,0071;0,0847;0,0520;-0,0260;-0,1720;0,0125;-0,0423;0,0052;
8,907095;0,0933;0,9991;0,0789;0,0520;-0,0260;-0,1720;0,0125;-0,0423;0,0052;
8,908416;0,0933;0,9991;0,0789;-0,0140;0,0410;0,0640;0,0125;-0,0423;0,0052;
8,929101;0,0933;0,9991;0,0789;-0,0760;0,1790;0,2850;0,0125;-0,0423;0,0052;
8,947737;0,0933;0,9991;0,0789;-0,0760;0,1790;0,2850;0,0625;0,0347;0,0232;
8,949461;0,0933;0,9991;0,0789;-0,0090;0,1370;0,0070;0,0625;0,0347;0,0232;
8,969299;0,1011;0,9928;0,0321;-0,0090;0,1370;0,0070;0,0625;0,0347;0,0232;
8,970451;0,1011;0,9928;0,0321;0,0500;-0,0140;-0,3610;0,0625;0,0347;0,0232;
8,989258;0,1011;0,9928;0,0321;0,0210;-0,0420;-0,1980;0,0625;0,0347;0,0232;
9,010508;0,1011;0,9928;0,0321;0,0210;-0,0420;-0,1980;-0,0265;-0,0013;0,0002;
9,011188;0,1011;0,9928;0,0321;-0,0660;0,0680;0,2610;-0,0265;-0,0013;0,0002;
9,028422;0,0899;1,0022;0,0950;-0,0660;0,0680;0,2610;-0,0265;-0,0013;0,0002;
9,029202;0,0899;1,0022;0,0950;-0,0480;0,0820;0,2160;-0,0265;-0,0013;0,0002;
9,051220;0,0899;1,0022;0,0950;0,0410;-0,0260;-0,1340;-0,0265;-0,0013;0,0002;
9,070048;0,0899;1,0022;0,0950;0,0410;-0,0260;-0,1340;-0,0265;0,0097;-0,0028;
9,071308;0,0899;1,0022;0,0950;0,0390;-0,0400;-0,0370;-0,0265;0,0097;-0,0028;
9,091048;0,0962;0,9977;0,0894;0,0390;-0,0400;-0,0370;-0,0265;0,0097;-0,0028;
9,091847;0,0962;0,9977;0,0894;0,0110;0,0280;0,1630;-0,0265;0,0097;-0,0028;
9,111465;0,0962;0,9977;0,0894;0,0480;0,0560;0,0120;-0,0265;0,0097;-0,0028;
9,132714;0,0962;0,9977;0,0894;0,0450;0,0140;-0,2140;-0,0265;0,0097;-0,0028;
9,151938;0,0965;0,9945;0,0796;0,0450;0,0140;-0,2140;-0,0265;0,0097;-0,0028;
9,153034;0,0965;0,9945;0,0796;0,0450;0,0140;-0,2140;-0,0485;-0,0153;-0,0158;
9,153712;0,0965;0,9945;0,0796;0,0060;0,0010;0,0720;-0,0485;-0,0153;-0,0158;
9,173828;0,0965;0,9945;0,0796;0,0080;-0,0230;0,3120;-0,0485;-0,0153;-0,0158;
9,192215;0,0965;0,9945;0,0796;0,0720;0,0310;-0,0490;-0,0485;-0,0153;-0,0158;
9,212982;0,1023;1,0006;0,0539;0,0720;0,0310;-0,0490;-0,0485;-0,0153;-0,0158;
9,214576;0,1023;1,0006;0,0539;0,0720;0,0310;-0,0490;-0,0265;0,0367;-0,0108;
9,215772;0,1023;1,0006;0,0539;0,0560;0,0570;-0,1990;-0,0265;0,0367;-0,0108;
9,231965;0,1023;1,0006;0,0539;-0,0060;0,1530;-0,0010;-0,0265;0,0367;-0,0108;
9,254066;0,1023;1,0006;0,0539;-0,0020;0,2620;0,0690;-0,0265;0,0367;-0,0108;
9,273499;0,0918;1,0138;0,0756;-0,0020;0,2620;0,0690;-0,0265;0,0367;-0,0108;
9,274505;0,0918;1,0138;0,0756;-0,0020;0,2620;0,0690;0,0025;-0,0193;-0,0088;
9,275082;0,0918;1,0138;0,0756;-0,0240;0,1930;0,0000;0,0025;-0,0193;-0,0088;
9,293516;0,0918;1,0138;0,0756;-0,0840;0,0970;-0,0350;0,0025;-0,0193;-0,0088;
9,314439;0,0918;1,0138;0,0756;-0,0400;0,1910;-0,1060;0,0025;-0,0193;-0,0088;
9,335031;0,0941;1,0306;0,0637;-0,0400;0,1910;-0,1060;0,0025;-0,0193;-0,0088;
9,336382;0,0941;1,0306;0,0637;-0,0400;0,1910;-0,1060;-0,0345;-0,1033;0,0102;
9,337198;0,0941;1,0306;0,0637;0,0000;0,3540;-0,1020;-0,0345;-0,1033;0,0102;
9,354766;0,0941;1,0306;0,0637;0,0620;0,4100;0,0800;-0,0345;-0,1033;0,0102;
9,375954;0,0941;1,0306;0,0637;0,2110;0,8450;-0,3000;-0,0345;-0,1033;0,0102;
9,395508;0,1288;1,1993;-0,0418;0,2110;0,8450;-0,3000;-0,0345;-0,1033;0,0102;
9,396623;0,1288;1,1993;-0,0418;0,3230;2,0040;-1,1210;-0,0345;-0,1033;0,0102;
9,415674;0,1288;1,1993;-0,0418;0,3230;2,0040;-1,1210;-0,3935;-0,0933;-0,0758;
9,417105;0,1288;1,1993;-0,0418;0,2800;3,6150;-1,6650;-0,3935;-0,0933;-0,0758;
9,435698;0,1288;1,1993;-0,0418;0,8160;4,9330;-1,3810;-0,3935;-0,0933;-0,0758;
9,457332;0,2439;1,6518;0,1026;0,8160;4,9330;-1,3810;-0,3935;-0,0933;-0,0758;
9,459162;0,2439;1,6518;0,1026;1,4730;6,4750;-0,0750;-0,3935;-0,0933;-0,0758;
9,475807;0,2439;1,6518;0,1026;1,4730;6,4750;-0,0750;-0,6365;-0,1603;-0,2008;
9,477364;0,2439;1,6518;0,1026;1,0080;7,6210;2,1410;-0,6365;-0,1603;-0,2008;
9,497356;0,2439;1,6518;0,1026;0,4290;7,0350;2,4800;-0,6365;-0,1603;-0,2008;
9,516794;0,0745;1,5676;0,1581;0,4290;7,0350;2,4800;-0,6365;-0,1603;-0,2008;
9,517429;0,0745;1,5676;0,1581;-0,0740;5,6400;0,4130;-0,6365;-0,1603;-0,2008;
9,537029;0,0745;1,5676;0,1581;-0,0740;5,6400;0,4130;0,8775;-0,6693;-0,0468;
9,537961;0,0745;1,5676;0,1581;0,0850;4,5980;-0,6380;0,8775;-0,6693;-0,0468;
9,557481;0,0745;1,5676;0,1581;0,2270;3,5750;-0,1480;0,8775;-0,6693;-0,0468;
9,579133;0,0666;1,2422;0,1411;0,2270;3,5750;-0,1480;0,8775;-0,6693;-0,0468;
9,580143;0,0666;1,2422;0,1411;-0,1670;2,4060;0,7970;0,8775;-0,6693;-0,0468;
9,597474;0,0666;1,2422;0,1411;-0,1670;2,4060;0,7970;1,4755;-0,4883;0,1122;
9,598630;0,0666;1,2422;0,1411;-0,4220;1,2390;1,7560;1,4755;-0,4883;0,1122;
9,619352;0,0666;1,2422;0,1411;-0,4460;-0,3570;1,7480;1,4755;-0,4883;0,1122;
9,639470;0,0313;0,8664;0,0017;-0,4460;-0,3570;1,7480;1,4755;-0,4883;0,1122;
9,641387;0,0313;0,8664;0,0017;-0,5770;-1,2770;0,3200;1,4755;-0,4883;0,1122;
9,659196;0,0313;0,8664;0,0017;-0,5220;-1,6540;-0,6710;1,4755;-0,4883;0,1122;
9,679883;0,0313;0,8664;0,0017;-0,5220;-1,6540;-0,6710;1,2435;-0,0463;0,0742;
9,681175;0,0313;0,8664;0,0017;-0,7560;-2,1500;-0,1290;1,2435;-0,0463;0,0742;
9,700719;-0,0173;0,7650;-0,0161;-0,7560;-2,1500;-0,1290;1,2435;-0,0463;0,0742;
9,701442;-0,0173;0,7650;-0,0161;-1,0880;-2,2110;0,9340;1,2435;-0,0463;0,0742;
9,719347;-0,0173;0,7650;-0,0161;-0,7230;-2,5280;1,6430;1,2435;-0,0463;0,0742;
9,741594;-0,0173;0,7650;-0,0161;-0,7230;-2,5280;1,6430;1,0255;0,2007;-0,1618;
9,742807;-0,0173;0,7650;-0,0161;-0,7610;-3,0730;1,3910;1,0255;0,2007;-0,1618;
9,761612;-0,0524;0,6787;-0,1279;-0,7610;-3,0730;1,3910;1,0255;0,2007;-0,1618;
9,763679;-0,0524;0,6787;-0,1279;-1,3810;-2,9790;0,4170;1,0255;0,2007;-0,1618;
9,782090;-0,0524;0,6787;-0,1279;-1,5630;-2,8880;0,1640;1,0255;0,2007;-0,1618;
9,801383;-0,0524;0,6787;-0,1279;-1,5630;-2,8880;0,1640;0,4375;0,2327;-0,2028;
9,802334;-0,0524;0,6787;-0,1279;-1,4240;-3,0490;0,7400;0,4375;0,2327;-0,2028;
9,821701;-0,0752;0,6235;-0,0582;-1,4240;-3,0490;0,7400;0,4375;0,2327;-0,2028;
9,823789;-0,0752;0,6235;-0,0582;-1,5160;-3,4700;1,4220;0,4375;0,2327;-0,2028;
9,844461;-0,0752;0,6235;-0,0582;-1,6030;-3,8620;1,6630;0,4375;0,2327;-0,2028;
9,863331;-0,0752;0,6235;-0,0582;-1,6030;-3,8620;1,6630;0,3915;-0,2473;-0,1508;
9,864988;-0,0752;0,6235;-0,0582;-1,6570;-4,0900;1,2260;0,3915;-0,2473;-0,1508;
9,882471;-0,0826;0,5360;-0,1342;-1,6570;-4,0900;1,2260;0,3915;-0,2473;-0,1508;
9,883626;-0,0826;0,5360;-0,1342;-1,4670;-4,2790;0,9340;0,3915;-0,2473;-0,1508;
9,904318;-0,0826;0,5360;-0,1342;-1,6390;-4,5840;1,0060;0,3915;-0,2473;-0,1508;
9,924014;-0,0826;0,5360;-0,1342;-2,1100;-4,7340;1,4890;0,3915;-0,2473;-0,1508;
9,944687;-0,1309;0,4707;0,0207;-2,1100;-4,7340;1,4890;0,3915;-0,2473;-0,1508;
9,946230;-0,1309;0,4707;0,0207;-2,1100;-4,7340;1,4890;-0,1165;0,7047;-0,1078;
9,948278;-0,1309;0,4707;0,0207;-1,8980;-4,9170;2,4570;-0,1165;0,7047;-0,1078;
9,964255;-0,1309;0,4707;0,0207;-1,5270;-5,0470;2,3830;-0,1165;0,7047;-0,1078;
9,985195;-0,1309;0,4707;0,0207;-2,1230;-4,8220;1,1670;-0,1165;0,7047;-0,1078;
10,006571;-0,2069;0,5374;-0,1464;-2,1230;-4,8220;1,1670;-0,1165;0,7047;-0,1078;
10,008692;-0,2069;0,5374;-0,1464;-2,1230;-4,8220;1,1670;-0,2415;1,1097;-0,2738;
10,009939;-0,2069;0,5374;-0,1464;-2,6350;-4,2890;0,7220;-0,2415;1,1097;-0,2738;
10,025070;-0,2069;0,5374;-0,1464;-2,0910;-4,0060;0,9190;-0,2415;1,1097;-0,2738;
10,045752;-0,2069;0,5374;-0,1464;-1,3110;-3,5800;1,0880;-0,2415;1,1097;-0,2738;
10,066205;-0,0848;0,6876;-0,0066;-1,3110;-3,5800;1,0880;-0,2415;1,1097;-0,2738;
10,067281;-0,0848;0,6876;-0,0066;-1,3110;-3,5800;1,0880;-0,9395;1,6657;-0,2178;
10,067972;-0,0848;0,6876;-0,0066;-1,5000;-2,8910;1,7270;-0,9395;1,6657;-0,2178;
10,084761;-0,0848;0,6876;-0,0066;-1,7130;-2,0680;1,9990;-0,9395;1,6657;-0,2178;
10,107861;-0,0848;0,6876;-0,0066;-0,9410;-1,8780;1,4490;-0,9395;1,6657;-0,2178;
10,126620;0,0061;0,7997;-0,1295;-0,9410;-1,8780;1,4490;-0,9395;1,6657;-0,2178;
10,127574;0,0061;0,7997;-0,1295;-0,9410;-1,8780;1,4490;-0,8585;0,8818;-0,3638;
10,128071;0,0061;0,7997;-0,1295;-0,5550;-1,8730;0,0020;-0,8585;0,8818;-0,3638;
10,147675;0,0061;0,7997;-0,1295;-0,7770;-1,4490;-0,8420;-0,8585;0,8818;-0,3638;
10,167242;0,0061;0,7997;-0,1295;-0,7340;-0,2680;0,8390;-0,8585;0,8818;-0,3638;
10,189231;0,0487;1,0653;0,3366;-0,7340;-0,2680;0,8390;-0,8585;0,8818;-0,3638;
10,191226;0,0487;1,0653;0,3366;-0,0290;0,6490;3,7360;-0,8585;0,8818;-0,3638;
10,207716;0,0487;1,0653;0,3366;-0,0290;0,6490;3,7360;-1,1715;1,7148;-0,1088;
10,209451;0,0487;1,0653;0,3366;1,0970;0,4360;4,0530;-1,1715;1,7148;-0,1088;
10,229109;0,0487;1,0653;0,3366;1,6500;0,3360;1,6650;-1,1715;1,7148;-0,1088;
10,248265;0,1309;1,1685;-0,1009;1,6500;0,3360;1,6650;-1,1715;1,7148;-0,1088;
10,249858;0,1309;1,1685;-0,1009;0,9580;1,6390;-1,0060;-1,1715;1,7148;-0,1088;
10,269686;0,1309;1,1685;-0,1009;0,9580;1,6390;-1,0060;-1,0195;0,9048;-0,6548;
10,272038;0,1309;1,1685;-0,1009;0,3250;1,8550;-1,7180;-1,0195;0,9048;-0,6548;
10,289370;0,1309;1,1685;-0,1009;-0,4100;1,4540;0,2730;-1,0195;0,9048;-0,6548;
10,311899;-0,0070;1,1203;0,3674;-0,4100;1,4540;0,2730;-1,0195;0,9048;-0,6548;
10,313751;-0,0070;1,1203;0,3674;-0,0610;1,1980;2,8720;-1,0195;0,9048;-0,6548;
10,327884;-0,0070;1,1203;0,3674;-0,0610;1,1980;2,8720;-0,5815;1,0598;0,0162;
10,329160;-0,0070;1,1203;0,3674;1,1260;1,5940;3,6720;-0,5815;1,0598;0,0162;
10,352242;-0,0070;1,1203;0,3674;1,7590;2,0800;2,1240;-0,5815;1,0598;0,0162;
10,369407;0,1295;1,2093;0,0722;1,7590;2,0800;2,1240;-0,5815;1,0598;0,0162;
10,370836;0,1295;1,2093;0,0722;1,3610;2,1010;-0,3710;-0,5815;1,0598;0,0162;
10,392970;0,1295;1,2093;0,0722;1,3610;2,1010;-0,3710;-0,7695;0,5968;-0,0798;
10,394150;0,1295;1,2093;0,0722;0,9580;2,2510;-1,7610;-0,7695;0,5968;-0,0798;
10,411219;0,1295;1,2093;0,0722;1,2430;2,4750;-1,7100;-0,7695;0,5968;-0,0798;
10,433155;0,1996;1,2543;0,1436;1,2430;2,4750;-1,7100;-0,7695;0,5968;-0,0798;
10,434674;0,1996;1,2543;0,1436;2,1170;2,5960;-0,1030;-0,7695;0,5968;-0,0798;
10,450775;0,1996;1,2543;0,1436;2,2770;2,8850;0,6530;-0,7695;0,5968;-0,0798;
10,475162;0,1996;1,2543;0,1436;2,2770;2,8850;0,6530;-0,9375;0,4618;0,0562;
10,476192;0,1996;1,2543;0,1436;2,4570;3,6680;0,4440;-0,9375;0,4618;0,0562;
10,491642;0,2180;1,4123;0,2369;2,4570;3,6680;0,4440;-0,9375;0,4618;0,0562;
10,493095;0,2180;1,4123;0,2369;2,3080;4,2460;0,2830;-0,9375;0,4618;0,0562;
10,513632;0,2180;1,4123;0,2369;1,8920;4,5310;0,6140;-0,9375;0,4618;0,0562;
10,532390;0,2180;1,4123;0,2369;1,8920;4,5310;0,6140;-0,3105;0,7038;0,0882;
10,533154;0,2180;1,4123;0,2369;1,1200;4,6840;0,7980;-0,3105;0,7038;0,0882;
10,554167;0,0654;1,5023;0,2772;1,1200;4,6840;0,7980;-0,3105;0,7038;0,0882;
10,555198;0,0654;1,5023;0,2772;0,8610;5,1680;0,4550;-0,3105;0,7038;0,0882;
10,574424;0,0654;1,5023;0,2772;1,0590;5,4230;-0,3060;-0,3105;0,7038;0,0882;
10,595890;0,0654;1,5023;0,2772;1,0590;5,4230;-0,3060;0,3195;0,1748;0,2052;
10,597055;0,0654;1,5023;0,2772;1,1790;5,6550;-1,1800;0,3195;0,1748;0,2052;
10,612880;0,1106;1,5900;0,1026;1,1790;5,6550;-1,1800;0,3195;0,1748;0,2052;
10,614140;0,1106;1,5900;0,1026;1,2150;6,0090;-1,1310;0,3195;0,1748;0,2052;
10,636326;0,1106;1,5900;0,1026;1,2440;6,3230;-0,6510;0,3195;0,1748;0,2052;
10,654372;0,1106;1,5900;0,1026;1,2440;6,3230;-0,6510;0,4225;0,1628;0,0012;
10,656030;0,1106;1,5900;0,1026;1,2330;6,2410;-0,5050;0,4225;0,1628;0,0012;
10,675937;0,0774;1,5383;0,1590;1,2330;6,2410;-0,5050;0,4225;0,1628;0,0012;
10,677730;0,0774;1,5383;0,1590;0,8590;5,4470;-0,3660;0,4225;0,1628;0,0012;
10,695138;0,0774;1,5383;0,1590;0,7350;4,2290;-0,2090;0,4225;0,1628;0,0012;
10,717390;0,0774;1,5383;0,1590;1,0820;3,4870;-0,1110;0,4225;0,1628;0,0012;
10,735308;0,1016;1,2838;0,1944;1,0820;3,4870;-0,1110;0,4225;0,1628;0,0012;
10,736032;0,1016;1,2838;0,1944;1,0820;3,4870;-0,1110;0,5705;0,2078;-0,0848;
10,736430;0,1016;1,2838;0,1944;1,1430;2,8960;0,3010;0,5705;0,2078;-0,0848;
10,757670;0,1016;1,2838;0,1944;0,6410;1,4730;1,3420;0,5705;0,2078;-0,0848;
10,776532;0,1016;1,2838;0,1944;0,5840;0,2910;2,5150;0,5705;0,2078;-0,0848;
10,798899;0,0601;0,8918;0,3562;0,5840;0,2910;2,5150;0,5705;0,2078;-0,0848;
10,800306;0,0601;0,8918;0,3562;0,5840;0,2910;2,5150;1,3885;0,5528;-0,0438;
10,801339;0,0601;0,8918;0,3562;0,8400;-1,0170;2,4500;1,3885;0,5528;-0,0438;
10,816896;0,0601;0,8918;0,3562;0,8240;-1,8080;1,0580;1,3885;0,5528;-0,0438;
10,839545;0,0601;0,8918;0,3562;1,3270;-1,7450;0,0890;1,3885;0,5528;-0,0438;
10,857694;0,1334;0,7628;0,0615;1,3270;-1,7450;0,0890;1,3885;0,5528;-0,0438;
10,858715;0,1334;0,7628;0,0615;1,3270;-1,7450;0,0890;1,5405;-0,0442;-0,1138;
10,859575;0,1334;0,7628;0,0615;1,5720;-2,3380;0,5370;1,5405;-0,0442;-0,1138;
10,879734;0,1334;0,7628;0,0615;1,9520;-3,1790;1,5440;1,5405;-0,0442;-0,1138;
10,898919;0,1334;0,7628;0,0615;2,0860;-3,8880;1,2190;1,5405;-0,0442;-0,1138;
10,921129;0,1424;0,5474;-0,0454;2,0860;-3,8880;1,2190;1,5405;-0,0442;-0,1138;
10,924064;0,1424;0,5474;-0,0454;2,0860;-3,8880;1,2190;1,2275;-0,0512;-0,1678;
10,925109;0,1424;0,5474;-0,0454;1,7800;-4,4130;0,3600;1,2275;-0,0512;-0,1678;
10,938296;0,1424;0,5474;-0,0454;1,8940;-4,6350;0,4080;1,2275;-0,0512;-0,1678;
10,961541;0,1424;0,5474;-0,0454;2,0180;-4,6640;0,5710;1,2275;-0,0512;-0,1678;
10,979555;0,1290;0,4871;-0,0943;2,0180;-4,6640;0,5710;1,2275;-0,0512;-0,1678;
10,981256;0,1290;0,4871;-0,0943;1,6940;-4,9260;0,5030;1,2275;-0,0512;-0,1678;
11,001125;0,1290;0,4871;-0,0943;1,6940;-4,9260;0,5030;0,8095;-0,2412;0,1002;
11,002199;0,1290;0,4871;-0,0943;1,6840;-5,1880;0,3760;0,8095;-0,2412;0,1002;
11,019902;0,1290;0,4871;-0,0943;1,9650;-5,2460;0,2750;0,8095;-0,2412;0,1002;
11,042619;0,1761;0,4917;-0,1747;1,9650;-5,2460;0,2750;0,8095;-0,2412;0,1002;
11,044274;0,1761;0,4917;-0,1747;2,1120;-4,8160;0,1360;0,8095;-0,2412;0,1002;
11,059534;0,1761;0,4917;-0,1747;2,1120;-4,8160;0,1360;0,4025;-0,8872;0,2672;
11,060857;0,1761;0,4917;-0,1747;1,6350;-4,6500;0,1110;0,4025;-0,8872;0,2672;
11,083609;0,1761;0,4917;-0,1747;1,5680;-4,6820;0,3150;0,4025;-0,8872;0,2672;
11,101066;0,1842;0,5623;-0,1435;1,5680;-4,6820;0,3150;0,4025;-0,8872;0,2672;
11,101952;0,1842;0,5623;-0,1435;2,0600;-4,0960;0,5880;0,4025;-0,8872;0,2672;
11,123042;0,1842;0,5623;-0,1435;2,0600;-4,0960;0,5880;-0,2975;-0,4582;0,3962;
11,124653;0,1842;0,5623;-0,1435;1,8050;-3,5050;0,6900;-0,2975;-0,4582;0,3962;
11,142212;0,1842;0,5623;-0,1435;1,3110;-2,9210;0,6200;-0,2975;-0,4582;0,3962;
11,164708;0,0791;0,7347;-0,1195;1,3110;-2,9210;0,6200;-0,2975;-0,4582;0,3962;
11,167144;0,0791;0,7347;-0,1195;0,8930;-2,4470;0,6410;-0,2975;-0,4582;0,3962;
11,182617;0,0791;0,7347;-0,1195;0,8930;-2,4470;0,6410;-0,6335;-0,9552;0,2602;
11,183837;0,0791;0,7347;-0,1195;0,6370;-2,1940;0,2920;-0,6335;-0,9552;0,2602;
11,204352;0,0791;0,7347;-0,1195;0,4220;-1,8070;0,2020;-0,6335;-0,9552;0,2602;
11,225945;0,0531;0,8820;-0,0965;0,4220;-1,8070;0,2020;-0,6335;-0,9552;0,2602;
11,227472;0,0531;0,8820;-0,0965;0,5710;-1,0710;0,4530;-0,6335;-0,9552;0,2602;
11,246017;0,0531;0,8820;-0,0965;0,5020;-0,4990;1,0520;-0,6335;-0,9552;0,2602;
11,263848;0,0531;0,8820;-0,0965;0,5020;-0,4990;1,0520;-0,9095;-1,1472;0,3732;
11,265488;0,0531;0,8820;-0,0965;0,0850;-0,2750;1,6440;-0,9095;-1,1472;0,3732;
11,285134;0,0189;0,9647;0,1015;0,0850;-0,2750;1,6440;-0,9095;-1,1472;0,3732;
11,286492;0,0189;0,9647;0,1015;0,0810;-0,3140;1,8730;-0,9095;-1,1472;0,3732;
11,305064;0,0189;0,9647;0,1015;0,1080;-0,0750;2,2670;-0,9095;-1,1472;0,3732;
11,327329;0,0189;0,9647;0,1015;0,1080;-0,0750;2,2670;-0,2815;-0,6762;0,3322;
11,328848;0,0189;0,9647;0,1015;-0,8220;0,2060;1,5930;-0,2815;-0,6762;0,3322;
11,344442;-0,0735;1,0282;0,0049;-0,8220;0,2060;1,5930;-0,2815;-0,6762;0,3322;
11,346260;-0,0735;1,0282;0,0049;-0,9710;0,2870;0,7410;-0,2815;-0,6762;0,3322;
11,367930;-0,0735;1,0282;0,0049;-0,3770;0,5070;0,3000;-0,2815;-0,6762;0,3322;
11,386210;-0,0735;1,0282;0,0049;-0,3770;0,5070;0,3000;-0,5225;0,2158;0,3662;
11,387083;-0,0735;1,0282;0,0049;0,0310;0,9570;0,5120;-0,5225;0,2158;0,3662;
11,408727;-0,0053;1,0937;0,0344;0,0310;0,9570;0,5120;-0,5225;0,2158;0,3662;
11,410430;-0,0053;1,0937;0,0344;-0,5820;0,9260;0,8240;-0,5225;0,2158;0,3662;
11,426448;-0,0053;1,0937;0,0344;-1,1600;0,6280;0,8200;-0,5225;0,2158;0,3662;
11,447262;-0,0053;1,0937;0,0344;-1,1600;0,6280;0,8200;-0,2325;-0,2862;0,0922;
11,448727;-0,0053;1,0937;0,0344;-1,2260;0,5530;0,5600;-0,2325;-0,2862;0,0922;
11,467444;-0,0792;1,0690;-0,0389;-1,2260;0,5530;0,5600;-0,2325;-0,2862;0,0922;
11,468197;-0,0792;1,0690;-0,0389;-1,1590;0,6760;-0,2340;-0,2325;-0,2862;0,0922;
11,487901;-0,0792;1,0690;-0,0389;-1,0400;0,8390;-1,4290;-0,2325;-0,2862;0,0922;
11,508424;-0,0792;1,0690;-0,0389;-0,6720;1,0020;-1,8350;-0,2325;-0,2862;0,0922;
11,529970;-0,0440;1,1271;-0,0179;-0,6720;1,0020;-1,8350;-0,2325;-0,2862;0,0922;
11,531074;-0,0440;1,1271;-0,0179;-0,6720;1,0020;-1,8350;-0,9625;-0,6002;-0,1788;
11,531861;-0,0440;1,1271;-0,0179;-0,7230;1,2320;-0,3680;-0,9625;-0,6002;-0,1788;
11,549102;-0,0440;1,1271;-0,0179;-1,5250;1,3330;1,4170;-0,9625;-0,6002;-0,1788;
11,570329;-0,0440;1,1271;-0,0179;-1,9760;1,0400;1,2070;-0,9625;-0,6002;-0,1788;
11,589766;-0,1712;1,0844;-0,0012;-1,9760;1,0400;1,2070;-0,9625;-0,6002;-0,1788;
11,591380;-0,1712;1,0844;-0,0012;-1,9760;1,0400;1,2070;-0,2625;-0,5952;0,1312;
11,592128;-0,1712;1,0844;-0,0012;-1,9240;0,8410;-0,6380;-0,2625;-0,5952;0,1312;
11,609528;-0,1712;1,0844;-0,0012;-0,9430;1,2260;-2,1650;-0,2625;-0,5952;0,1312;
11,630759;-0,1712;1,0844;-0,0012;-0,3680;2,0660;-1,0950;-0,2625;-0,5952;0,1312;
11,651778;-0,0302;1,2322;0,1649;-0,3680;2,0660;-1,0950;-0,2625;-0,5952;0,1312;
11,652543;-0,0302;1,2322;0,1649;-0,3680;2,0660;-1,0950;-0,7805;-0,2092;-0,0678;
11,653098;-0,0302;1,2322;0,1649;-0,6530;2,3100;0,6910;-0,7805;-0,2092;-0,0678;
11,670701;-0,0302;1,2322;0,1649;-1,2260;1,7510;1,0880;-0,7805;-0,2092;-0,0678;
11,692414;-0,0302;1,2322;0,1649;-1,2760;1,4320;-0,2180;-0,7805;-0,2092;-0,0678;
11,711719;-0,0789;1,1631;-0,0228;-1,2760;1,4320;-0,2180;-0,7805;-0,2092;-0,0678;
11,713808;-0,0789;1,1631;-0,0228;-1,2760;1,4320;-0,2180;-0,1805;-0,5982;0,0382;
11,714821;-0,0789;1,1631;-0,0228;-1,1260;1,6530;-1,3590;-0,1805;-0,5982;0,0382;
11,731897;-0,0789;1,1631;-0,0228;-0,6980;1,6990;-1,2580;-0,1805;-0,5982;0,0382;
11,752126;-0,0789;1,1631;-0,0228;-0,1880;1,5310;-0,4680;-0,1805;-0,5982;0,0382;
11,773165;0,0538;1,1440;0,1458;-0,1880;1,5310;-0,4680;-0,1805;-0,5982;0,0382;
11,774070;0,0538;1,1440;0,1458;0,1040;1,5000;0,0970;-0,1805;-0,5982;0,0382;
11,792022;0,0538;1,1440;0,1458;0,1040;1,5000;0,0970;-0,2875;-0,3612;-0,1388;
11,793109;0,0538;1,1440;0,1458;-0,2630;1,4670;-0,3940;-0,2875;-0,3612;-0,1388;
11,814775;0,0538;1,1440;0,1458;-0,5820;1,2960;-0,6890;-0,2875;-0,3612;-0,1388;
11,833622;-0,0097;1,1142;0,1411;-0,5820;1,2960;-0,6890;-0,2875;-0,3612;-0,1388;
11,834302;-0,0097;1,1142;0,1411;-0,4490;1,2210;-0,0950;-0,2875;-0,3612;-0,1388;
11,853754;-0,0097;1,1142;0,1411;-0,4490;1,2210;-0,0950;-0,0515;-0,4702;-0,0138;
11,855613;-0,0097;1,1142;0,1411;-0,0880;1,2240;0,2230;-0,0515;-0,4702;-0,0138;
11,874177;-0,0097;1,1142;0,1411;0,2250;0,8550;-0,4290;-0,0515;-0,4702;-0,0138;
11,895267;0,0867;1,0323;0,0363;0,2250;0,8550;-0,4290;-0,0515;-0,4702;-0,0138;
11,896618;0,0867;1,0323;0,0363;0,4510;0,4150;-1,0950;-0,0515;-0,4702;-0,0138;
11,913983;0,0867;1,0323;0,0363;0,4510;0,4150;-1,0950;-0,0025;-0,2892;-0,1188;
11,915465;0,0867;1,0323;0,0363;0,3890;0,3240;-0,6840;-0,0025;-0,2892;-0,1188;
11,935942;0,0867;1,0323;0,0363;0,1130;0,1760;0,3030;-0,0025;-0,2892;-0,1188;
11,956055;0,0294;0,9859;0,1737;0,1130;0,1760;0,3030;-0,0025;-0,2892;-0,1188;
11,957290;0,0294;0,9859;0,1737;-0,0920;-0,0390;0,2740;-0,0025;-0,2892;-0,1188;
11,976184;0,0294;0,9859;0,1737;-0,0920;-0,0390;0,2740;0,0905;0,0068;-0,0248;
11,978240;0,0294;0,9859;0,1737;0,0000;0,1010;-0,4080;0,0905;0,0068;-0,0248;
11,996100;0,0294;0,9859;0,1737;0,1050;0,1620;-0,4870;0,0905;0,0068;-0,0248;
12,017085;0,0382;0,9989;0,1059;0,1050;0,1620;-0,4870;0,0905;0,0068;-0,0248;
12,017832;0,0382;0,9989;0,1059;0,0050;0,0620;-0,2410;0,0905;0,0068;-0,0248;
12,035850;0,0382;0,9989;0,1059;0,0000;-0,0070;-0,1840;0,0905;0,0068;-0,0248;
12,058149;0,0382;0,9989;0,1059;0,0000;-0,0070;-0,1840;-0,0295;-0,2152;-0,0478;
12,059745;0,0382;0,9989;0,1059;0,0410;-0,0210;-0,0220;-0,0295;-0,2152;-0,0478;
12,077873;0,0443;0,9886;0,1536;0,0410;-0,0210;-0,0220;-0,0295;-0,2152;-0,0478;
12,079477;0,0443;0,9886;0,1536;0,0640;-0,0310;0,2140;-0,0295;-0,2152;-0,0478;
12,098607;0,0443;0,9886;0,1536;0,0930;-0,1380;0,1750;-0,0295;-0,2152;-0,0478;
12,117915;0,0443;0,9886;0,1536;0,0930;-0,1380;0,1750;0,0915;-0,1022;0,0312;
12,118595;0,0443;0,9886;0,1536;0,2410;-0,1140;-0,2250;0,0915;-0,1022;0,0312;
12,140347;0,0701;0,9952;0,0820;0,2410;-0,1140;-0,2250;0,0915;-0,1022;0,0312;
12,141993;0,0701;0,9952;0,0820;0,2550;0,0300;-0,4110;0,0915;-0,1022;0,0312;
12,157906;0,0701;0,9952;0,0820;0,1470;-0,0230;0,0480;0,0915;-0,1022;0,0312;
12,180175;0,0701;0,9952;0,0820;0,1470;-0,0230;0,0480;0,0155;-0,0732;-0,0178;
12,182211;0,0701;0,9952;0,0820;0,1630;-0,0330;0,2840;0,0155;-0,0732;-0,0178;
12,199253;0,0647;0,9920;0,1257;0,1630;-0,0330;0,2840;0,0155;-0,0732;-0,0178;
12,199929;0,0647;0,9920;0,1257;0,1650;-0,0060;-0,0090;0,0155;-0,0732;-0,0178;
12,220719;0,0647;0,9920;0,1257;0,0910;-0,0080;-0,1940;0,0155;-0,0732;-0,0178;
12,240290;0,0647;0,9920;0,1257;0,0910;-0,0080;-0,1940;-0,0255;-0,1182;-0,0048;
12,241745;0,0647;0,9920;0,1257;0,0090;0,0300;-0,1940;-0,0255;-0,1182;-0,0048;
12,261095;0,0589;1,0035;0,1213;0,0090;0,0300;-0,1940;-0,0255;-0,1182;-0,0048;
12,262606;0,0589;1,0035;0,1213;0,0950;0,1120;-0,0180;-0,0255;-0,1182;-0,0048;
12,280584;0,0589;1,0035;0,1213;0,1750;0,1280;0,0920;-0,0255;-0,1182;-0,0048;
12,301534;0,0589;1,0035;0,1213;0,0870;0,1050;0,2410;-0,0255;-0,1182;-0,0048;
12,321941;0,0647;1,0069;0,1519;0,0870;0,1050;0,2410;-0,0255;-0,1182;-0,0048;
12,323483;0,0647;1,0069;0,1519;0,0870;0,1050;0,2410;0,0075;-0,0162;0,0002;
12,324380;0,0647;1,0069;0,1519;0,1190;0,1490;0,2240;0,0075;-0,0162;0,0002;
12,342197;0,0647;1,0069;0,1519;0,2260;0,1450;-0,2210;0,0075;-0,0162;0,0002;
12,362076;0,0647;1,0069;0,1519;0,0880;0,0870;-0,3620;0,0075;-0,0162;0,0002;
12,383039;0,0543;0,9959;0,1182;0,0880;0,0870;-0,3620;0,0075;-0,0162;0,0002;
12,383981;0,0543;0,9959;0,1182;0,0880;0,0870;-0,3620;-0,0265;-0,0572;-0,0268;
12,384627;0,0543;0,9959;0,1182;0,0100;0,0320;-0,0350;-0,0265;-0,0572;-0,0268;
12,401569;0,0543;0,9959;0,1182;0,0620;0,0610;0,0890;-0,0265;-0,0572;-0,0268;
12,424413;0,0543;0,9959;0,1182;0,1230;0,1860;0,2500;-0,0265;-0,0572;-0,0268;
12,443909;0,0546;0,9973;0,1407;0,1230;0,1860;0,2500;-0,0265;-0,0572;-0,0268;
12,444607;0,0546;0,9973;0,1407;0,1230;0,1860;0,2500;0,0485;-0,0092;-0,0268;
12,445035;0,0546;0,9973;0,1407;0,0050;0,0490;0,1520;0,0485;-0,0092;-0,0268;
12,463491;0,0546;0,9973;0,1407;-0,0280;0,0060;-0,1280;0,0485;-0,0092;-0,0268;
12,483684;0,0546;0,9973;0,1407;-0,0360;0,0040;-0,1800;0,0485;-0,0092;-0,0268;
12,504799;0,0584;0,9926;0,1131;-0,0360;0,0040;-0,1800;0,0485;-0,0092;-0,0268;
12,505796;0,0584;0,9926;0,1131;-0,0360;0,0040;-0,1800;-0,0345;-0,0542;-0,0088;
12,506226;0,0584;0,9926;0,1131;0,0410;0,0030;-0,0800;-0,0345;-0,0542;-0,0088;
12,523591;0,0584;0,9926;0,1131;0,0770;0,0450;-0,0550;-0,0345;-0,0542;-0,0088;
12,545964;0,0584;0,9926;0,1131;-0,0770;0,1420;0,2060;-0,0345;-0,0542;-0,0088;
12,565089;0,0389;1,0069;0,1595;-0,0770;0,1420;0,2060;-0,0345;-0,0542;-0,0088;
12,565930;0,0389;1,0069;0,1595;-0,1330;0,1450;0,3190;-0,0345;-0,0542;-0,0088;
12,584796;0,0389;1,0069;0,1595;-0,1330;0,1450;0,3190;0,0705;-0,0462;0,0102;
12,585489;0,0389;1,0069;0,1595;-0,0250;0,0750;-0,0320;0,0705;-0,0462;0,0102;
12,607120;0,0389;1,0069;0,1595;0,1260;0,0470;-0,0480;0,0705;-0,0462;0,0102;
12,627134;0,0555;0,9898;0,1282;0,1260;0,0470;-0,0480;0,0705;-0,0462;0,0102;
12,628604;0,0555;0,9898;0,1282;0,0170;-0,0200;0,0440;0,0705;-0,0462;0,0102;
12,645584;0,0555;0,9898;0,1282;0,0170;-0,0200;0,0440;0,0315;0,0378;0,0032;
12,647154;0,0555;0,9898;0,1282;-0,0580;-0,0350;-0,0680;0,0315;0,0378;0,0032;
12,667455;0,0555;0,9898;0,1282;-0,0170;0,0560;-0,1830;0,0315;0,0378;0,0032;
12,686556;0,0469;1,0052;0,1080;-0,0170;0,0560;-0,1830;0,0315;0,0378;0,0032;
12,687247;0,0469;1,0052;0,1080;-0,0540;0,1230;-0,1130;0,0315;0,0378;0,0032;
12,707689;0,0469;1,0052;0,1080;-0,0540;0,1230;-0,1130;0,0155;-0,0272;0,0082;
12,708513;0,0469;1,0052;0,1080;-0,0380;0,1080;-0,0620;0,0155;-0,0272;0,0082;
12,726724;0,0469;1,0052;0,1080;0,0760;0,0810;0,0710;0,0155;-0,0272;0,0082;
12,748654;0,0633;0,9977;0,1367;0,0760;0,0810;0,0710;0,0155;-0,0272;0,0082;
12,749778;0,0633;0,9977;0,1367;0,0940;0,0410;0,1730;0,0155;-0,0272;0,0082;
12,767508;0,0633;0,9977;0,1367;0,0940;0,0410;0,1730;0,0465;0,0148;0,0082;
12,768157;0,0633;0,9977;0,1367;-0,0760;0,0260;-0,0440;0,0465;0,0148;0,0082;
12,789312;0,0633;0,9977;0,1367;-0,0590;-0,0310;-0,1970;0,0465;0,0148;0,0082;
12,808460;0,0572;0,9903;0,0957;-0,0590;-0,0310;-0,1970;0,0465;0,0148;0,0082;
12,809989;0,0572;0,9903;0,0957;0,0420;-0,0320;-0,1800;0,0465;0,0148;0,0082;
12,829701;0,0572;0,9903;0,0957;0,1240;0,0220;-0,0050;0,0465;0,0148;0,0082;
12,849070;0,0572;0,9903;0,0957;0,1240;0,0220;-0,0050;-0,0335;-0,0422;-0,0008;
12,850487;0,0572;0,9903;0,0957;0,0510;0,0790;0,2040;-0,0335;-0,0422;-0,0008;
12,869990;0,0565;1,0026;0,1527;0,0510;0,0790;0,2040;-0,0335;-0,0422;-0,0008;
12,871053;0,0565;1,0026;0,1527;0,0090;0,0970;0,3260;-0,0335;-0,0422;-0,0008;
12,889557;0,0565;1,0026;0,1527;-0,0530;-0,0250;0,1030;-0,0335;-0,0422;-0,0008;
12,911988;0,0565;1,0026;0,1527;-0,0530;-0,0250;0,1030;0,0265;0,0408;0,0182;
12,913035;0,0565;1,0026;0,1527;-0,0130;-0,0280;-0,2750;0,0265;0,0408;0,0182;
12,930309;0,0555;0,9991;0,0966;-0,0130;-0,0280;-0,2750;0,0265;0,0408;0,0182;
12,931103;0,0555;0,9991;0,0966;-0,0030;0,0510;-0,1800;0,0265;0,0408;0,0182;
12,954047;0,0555;0,9991;0,0966;0,0430;0,1080;0,1950;0,0265;0,0408;0,0182;
12,971240;0,0555;0,9991;0,0966;0,0430;0,1080;0,1950;0,0305;0,0048;0,0072;
12,972949;0,0555;0,9991;0,0966;0,0380;0,1100;0,1930;0,0305;0,0048;0,0072;
12,993343;0,0560;0,9979;0,1008;0,0380;0,1100;0,1930;0,0305;0,0048;0,0072;
12,994369;0,0560;0,9979;0,1008;-0,0030;0,0400;-0,1540;0,0305;0,0048;0,0072;
13,014649;0,0560;0,9979;0,1008;-0,0040;0,0240;-0,1650;0,0305;0,0048;0,0072;
13,033685;0,0560;0,9979;0,1008;-0,0040;0,0240;-0,1650;-0,0135;-0,0312;-0,0018;
13,034363;0,0560;0,9979;0,1008;0,0830;0,0810;0,1100;-0,0135;-0,0312;-0,0018;
13,051971;0,0664;0,9938;0,1248;0,0830;0,0810;0,1100;-0,0135;-0,0312;-0,0018;
13,053244;0,0664;0,9938;0,1248;0,0760;0,0140;0,0750;-0,0135;-0,0312;-0,0018;
13,084583;0,0664;0,9938;0,1248;0,0580;0,0410;-0,0180;-0,0135;-0,0312;-0,0018;
13,093185;0,0664;0,9938;0,1248;-0,0190;0,0270;-0,0270;-0,0135;-0,0312;-0,0018;
13,116050;0,0567;0,9935;0,1037;-0,0190;0,0270;-0,0270;-0,0135;-0,0312;-0,0018;
13,117761;0,0567;0,9935;0,1037;-0,0190;0,0270;-0,0270;0,0065;-0,0492;-0,0088;
13,118678;0,0567;0,9935;0,1037;-0,0170;-0,0010;-0,1120;0,0065;-0,0492;-0,0088;
13,133558;0,0567;0,9935;0,1037;0,0850;0,0670;-0,0440;0,0065;-0,0492;-0,0088;
13,157301;0,0567;0,9935;0,1037;-0,0070;0,1240;0,2290;0,0065;-0,0492;-0,0088;
13,176181;0,0494;1,0008;0,1370;-0,0070;0,1240;0,2290;0,0065;-0,0492;-0,0088;
13,177647;0,0494;1,0008;0,1370;-0,0070;0,1240;0,2290;0,0186;-0,0182;-0,0128;
13,178816;0,0494;1,0008;0,1370;-0,0790;0,0840;0,1750;0,0186;-0,0182;-0,0128;
13,195877;0,0494;1,0008;0,1370;-0,0340;0,0550;-0,1220;0,0186;-0,0182;-0,0128;
13,215219;0,0494;1,0008;0,1370;0,0670;0,0270;-0,0870;0,0186;-0,0182;-0,0128;
13,236994;0,0601;1,0001;0,1189;0,0670;0,0270;-0,0870;0,0186;-0,0182;-0,0128;
13,238010;0,0601;1,0001;0,1189;0,0670;0,0270;-0,0870;0,0026;-0,0042;-0,0128;
13,239085;0,0601;1,0001;0,1189;0,0250;0,0680;0,0190;0,0026;-0,0042;-0,0128;
13,254558;0,0601;1,0001;0,1189;-0,0740;0,0680;0,0180;0,0026;-0,0042;-0,0128;
13,278313;0,0601;1,0001;0,1189;-0,0550;0,0540;-0,0200;0,0026;-0,0042;-0,0128;
13,296224;0,0565;1,0003;0,1169;-0,0550;0,0540;-0,0200;0,0026;-0,0042;-0,0128;
13,298158;0,0565;1,0003;0,1169;-0,0550;0,0540;-0,0200;-0,0064;0,0278;0,0122;
13,299516;0,0565;1,0003;0,1169;-0,0010;0,0680;0,0050;-0,0064;0,0278;0,0122;
13,318324;0,0565;1,0003;0,1169;-0,0270;0,0680;0,0410;-0,0064;0,0278;0,0122;
13,336555;0,0565;1,0003;0,1169;0,0330;0,0690;0,0500;-0,0064;0,0278;0,0122;
13,358897;0,0755;0,9966;0,1172;0,0330;0,0690;0,0500;-0,0064;0,0278;0,0122;
13,359970;0,0755;0,9966;0,1172;0,1680;0,0420;0,0000;-0,0064;0,0278;0,0122;
13,376319;0,0755;0,9966;0,1172;0,1680;0,0420;0,0000;0,0246;0,0728;-0,0068;
13,377470;0,0755;0,9966;0,1172;0,0950;0,0410;-0,0460;0,0246;0,0728;-0,0068;
13,400167;0,0755;0,9966;0,1172;-0,1070;-0,0410;-0,0280;0,0246;0,0728;-0,0068;
13,417578;0,0438;0,9950;0,1133;-0,1070;-0,0410;-0,0280;0,0246;0,0728;-0,0068;
13,418456;0,0438;0,9950;0,1133;-0,1220;0,0120;-0,0240;0,0246;0,0728;-0,0068;
13,440750;0,0438;0,9950;0,1133;-0,1220;0,0120;-0,0240;0,0326;-0,0162;0,0172;
13,442303;0,0438;0,9950;0,1133;0,0350;0,0790;-0,0160;0,0326;-0,0162;0,0172;
13,458395;0,0438;0,9950;0,1133;0,1060;0,1050;-0,0960;0,0326;-0,0162;0,0172;
13,481856;0,0674;1,0082;0,1111;0,1060;0,1050;-0,0960;0,0326;-0,0162;0,0172;
13,483662;0,0674;1,0082;0,1111;0,0860;0,1460;-0,0230;0,0326;-0,0162;0,0172;
13,500336;0,0674;1,0082;0,1111;0,0860;0,1460;-0,0230;0,0016;-0,0612;0,0072;
13,501379;0,0674;1,0082;0,1111;0,0670;0,2690;0,0810;0,0016;-0,0612;0,0072;
13,520738;0,0674;1,0082;0,1111;0,1360;0,3510;-0,0080;0,0016;-0,0612;0,0072;
13,540113;0,0808;1,0472;0,0979;0,1360;0,3510;-0,0080;0,0016;-0,0612;0,0072;
13,542037;0,0808;1,0472;0,0979;0,1860;0,5280;-0,1270;0,0016;-0,0612;0,0072;
13,561452;0,0808;1,0472;0,0979;0,1860;0,5280;-0,1270;-0,0154;-0,1952;0,0232;
13,563192;0,0808;1,0472;0,0979;0,1940;0,6910;-0,0120;-0,0154;-0,1952;0,0232;
13,580355;0,0808;1,0472;0,0979;0,1380;0,9100;-0,0050;-0,0154;-0,1952;0,0232;
13,602897;0,0843;1,1173;0,1136;0,1380;0,9100;-0,0050;-0,0154;-0,1952;0,0232;
13,604353;0,0843;1,1173;0,1136;0,1560;1,2100;0,0430;-0,0154;-0,1952;0,0232;
13,620653;0,0843;1,1173;0,1136;0,3950;1,4690;-0,0820;-0,0154;-0,1952;0,0232;
13,644499;0,0843;1,1173;0,1136;0,3950;1,4690;-0,0820;-0,0024;-0,0932;0,1522;
13,646371;0,0843;1,1173;0,1136;0,5810;1,8390;-0,7470;-0,0024;-0,0932;0,1522;
13,660789;0,1087;1,2462;-0,0030;0,5810;1,8390;-0,7470;-0,0024;-0,0932;0,1522;
13,663070;0,1087;1,2462;-0,0030;0,2880;2,4850;-1,0860;-0,0024;-0,0932;0,1522;
13,684215;0,1087;1,2462;-0,0030;0,3650;3,3250;-0,6840;-0,0024;-0,0932;0,1522;
13,702147;0,1087;1,2462;-0,0030;0,3650;3,3250;-0,6840;-0,1654;-0,4212;0,2882;
13,703699;0,1087;1,2462;-0,0030;1,0260;3,6880;-0,5280;-0,1654;-0,4212;0,2882;
13,725183;0,2483;1,3945;0,0390;1,0260;3,6880;-0,5280;-0,1654;-0,4212;0,2882;
13,726909;0,2483;1,3945;0,0390;1,4820;3,9680;-0,7760;-0,1654;-0,4212;0,2882;
13,743390;0,2483;1,3945;0,0390;1,3190;4,2870;-1,1420;-0,1654;-0,4212;0,2882;
13,766030;0,2483;1,3945;0,0390;1,3190;4,2870;-1,1420;-0,1954;-0,9542;-0,1488;
13,767874;0,2483;1,3945;0,0390;0,9400;4,4400;-1,0080;-0,1954;-0,9542;-0,1488;
13,783491;0,1172;1,4971;0,2171;0,9400;4,4400;-1,0080;-0,1954;-0,9542;-0,1488;
13,784458;0,1172;1,4971;0,2171;0,1610;4,9860;0,9230;-0,1954;-0,9542;-0,1488;
13,806142;0,1172;1,4971;0,2171;-0,0830;4,8180;2,9900;-0,1954;-0,9542;-0,1488;
13,824526;0,1172;1,4971;0,2171;-0,0830;4,8180;2,9900;0,9626;-0,2232;-0,1578;
13,826265;0,1172;1,4971;0,2171;-0,5790;3,9450;2,4630;0,9626;-0,2232;-0,1578;
13,845763;-0,0417;1,3312;0,1893;-0,5790;3,9450;2,4630;0,9626;-0,2232;-0,1578;
13,847577;-0,0417;1,3312;0,1893;-1,3300;3,3090;0,9870;0,9626;-0,2232;-0,1578;
13,864746;-0,0417;1,3312;0,1893;-1,4860;2,2530;0,1760;0,9626;-0,2232;-0,1578;
13,886848;-0,0417;1,3312;0,1893;-1,6350;1,4080;0,2800;0,9626;-0,2232;-0,1578;
13,905481;-0,1297;1,0883;0,1414;-1,6350;1,4080;0,2800;0,9626;-0,2232;-0,1578;
13,906821;-0,1297;1,0883;0,1414;-1,6350;1,4080;0,2800;1,2246;-0,5862;-0,1028;
13,907840;-0,1297;1,0883;0,1414;-2,1350;0,8970;1,2850;1,2246;-0,5862;-0,1028;
13,927363;-0,1297;1,0883;0,1414;-2,3930;-0,0020;2,4780;1,2246;-0,5862;-0,1028;
13,945132;-0,1297;1,0883;0,1414;-1,8510;-1,1390;2,8230;1,2246;-0,5862;-0,1028;
13,968493;-0,0784;0,7610;0,1993;-1,8510;-1,1390;2,8230;1,2246;-0,5862;-0,1028;
13,970224;-0,0784;0,7610;0,1993;-1,8510;-1,1390;2,8230;1,3406;-0,4432;-0,0708;
13,971510;-0,0784;0,7610;0,1993;-1,5880;-2,2960;2,6450;1,3406;-0,4432;-0,0708;
13,986997;-0,0784;0,7610;0,1993;-1,6790;-3,2290;2,2450;1,3406;-0,4432;-0,0708;
14,010052;-0,0784;0,7610;0,1993;-1,9170;-3,6830;1,7890;1,3406;-0,4432;-0,0708;
14,027808;-0,1351;0,5709;0,0270;-1,9170;-3,6830;1,7890;1,3406;-0,4432;-0,0708;
14,029055;-0,1351;0,5709;0,0270;-1,9170;-3,6830;1,7890;0,8666;0,2748;-0,2948;
14,029890;-0,1351;0,5709;0,0270;-2,0110;-4,0970;1,6540;0,8666;0,2748;-0,2948;
14,047819;-0,1351;0,5709;0,0270;-1,5700;-4,8250;1,9900;0,8666;0,2748;-0,2948;
14,068231;-0,1351;0,5709;0,0270;-1,1360;-5,4010;1,6800;0,8666;0,2748;-0,2948;
14,090078;-0,0838;0,4327;-0,1132;-1,1360;-5,4010;1,6800;0,8666;0,2748;-0,2948;
14,092151;-0,0838;0,4327;-0,1132;-1,1360;-5,4010;1,6800;0,5626;0,8068;-0,4048;
14,092881;-0,0838;0,4327;-0,1132;-1,3770;-5,3780;0,7440;0,5626;0,8068;-0,4048;
14,108167;-0,0838;0,4327;-0,1132;-1,7090;-5,1310;0,5790;0,5626;0,8068;-0,4048;
14,130185;-0,0838;0,4327;-0,1132;-1,5310;-4,8410;0,8600;0,5626;0,8068;-0,4048;
14,149656;-0,0941;0,5028;-0,1053;-1,5310;-4,8410;0,8600;0,5626;0,8068;-0,4048;
14,150822;-0,0941;0,5028;-0,1053;-1,3000;-4,6790;0,9620;0,5626;0,8068;-0,4048;
14,169587;-0,0941;0,5028;-0,1053;-1,3000;-4,6790;0,9620;0,1406;0,7098;-0,4998;
14,170666;-0,0941;0,5028;-0,1053;-1,1910;-5,1810;1,1040;0,1406;0,7098;-0,4998;
14,190630;-0,0941;0,5028;-0,1053;-0,9610;-5,6230;0,9970;0,1406;0,7098;-0,4998;
14,212043;-0,0373;0,4355;-0,2029;-0,9610;-5,6230;0,9970;0,1406;0,7098;-0,4998;
14,213520;-0,0373;0,4355;-0,2029;-0,5380;-5,3190;0,1020;0,1406;0,7098;-0,4998;
14,231674;-0,0373;0,4355;-0,2029;-0,5380;-5,3190;0,1020;-0,2284;0,8158;-0,5598;
14,233079;-0,0373;0,4355;-0,2029;-0,5870;-4,6980;-0,3530;-0,2284;0,8158;-0,5598;
14,252297;-0,0373;0,4355;-0,2029;-1,2250;-4,4570;0,4910;-0,2284;0,8158;-0,5598;
14,272482;-0,1316;0,5443;-0,0010;-1,2250;-4,4570;0,4910;-0,2284;0,8158;-0,5598;
14,273874;-0,1316;0,5443;-0,0010;-1,2900;-4,3040;1,8540;-0,2284;0,8158;-0,5598;
14,293175;-0,1316;0,5443;-0,0010;-1,2900;-4,3040;1,8540;-0,4804;1,8018;-0,2658;
14,294892;-0,1316;0,5443;-0,0010;-0,4420;-4,0260;1,9140;-0,4804;1,8018;-0,2658;
14,311917;-0,1316;0,5443;-0,0010;-0,5130;-3,6040;0,8920;-0,4804;1,8018;-0,2658;
14,332727;-0,0777;0,6672;-0,1906;-0,5130;-3,6040;0,8920;-0,4804;1,8018;-0,2658;
14,334131;-0,0777;0,6672;-0,1906;-0,7390;-3,1380;-0,2730;-0,4804;1,8018;-0,2658;
14,352002;-0,0777;0,6672;-0,1906;-0,7390;-3,1380;-0,2730;-1,1014;1,1388;-0,3558;
14,352836;-0,0777;0,6672;-0,1906;-1,0100;-2,6920;-1,1030;-1,1014;1,1388;-0,3558;
14,374818;-0,0777;0,6672;-0,1906;-0,2400;-2,1110;-0,2970;-1,1014;1,1388;-0,3558;
14,393983;0,0213;0,8869;0,1949;-0,2400;-2,1110;-0,2970;-1,1014;1,1388;-0,3558;
14,395652;0,0213;0,8869;0,1949;0,3190;-1,0730;2,8160;-1,1014;1,1388;-0,3558;
14,413897;0,0213;0,8869;0,1949;-0,7990;0,0570;3,4990;-1,1014;1,1388;-0,3558;
14,435145;0,0213;0,8869;0,1949;-0,7990;0,0570;3,4990;-1,4514;1,3778;-0,2388;
14,436488;0,0213;0,8869;0,1949;-0,8690;0,7950;2,1300;-1,4514;1,3778;-0,2388;
14,454004;-0,0586;1,0793;0,1055;-0,8690;0,7950;2,1300;-1,4514;1,3778;-0,2388;
14,454683;-0,0586;1,0793;0,1055;-0,3500;0,7650;1,0330;-1,4514;1,3778;-0,2388;
14,475682;-0,0586;1,0793;0,1055;0,1830;0,8360;0,6850;-1,4514;1,3778;-0,2388;
14,495955;-0,0586;1,0793;0,1055;0,1830;0,8360;0,6850;-1,3614;0,7778;0,1212;
14,497162;-0,0586;1,0793;0,1055;0,8730;1,4030;0,7330;-1,3614;0,7778;0,1212;
14,514998;0,0035;1,1888;0,2164;0,8730;1,4030;0,7330;-1,3614;0,7778;0,1212;
14,516289;0,0035;1,1888;0,2164;0,2180;1,8710;1,3390;-1,3614;0,7778;0,1212;
14,536430;0,0035;1,1888;0,2164;0,3290;2,4160;2,4030;-1,3614;0,7778;0,1212;
14,556360;0,0035;1,1888;0,2164;0,3290;2,4160;2,4030;-0,9594;0,9968;0,2952;
14,557643;0,0035;1,1888;0,2164;0,9910;2,9080;3,2340;-0,9594;0,9968;0,2952;
14,576235;0,1314;1,2466;0,2690;0,9910;2,9080;3,2340;-0,9594;0,9968;0,2952;
14,577446;0,1314;1,2466;0,2690;1,3910;2,5090;1,1540;-0,9594;0,9968;0,2952;
14,596779;0,1314;1,2466;0,2690;1,0180;2,8730;-2,3830;-0,9594;0,9968;0,2952;
14,618214;0,1314;1,2466;0,2690;1,0180;2,8730;-2,3830;-1,5424;0,5168;0,1892;
14,619301;0,1314;1,2466;0,2690;1,4440;3,8280;-1,3410;-1,5424;0,5168;0,1892;
14,637212;0,2460;1,4236;0,5063;1,4440;3,8280;-1,3410;-1,5424;0,5168;0,1892;
14,638174;0,2460;1,4236;0,5063;2,4940;4,3800;2,8050;-1,5424;0,5168;0,1892;
14,657240;0,2460;1,4236;0,5063;2,7150;4,5310;3,4690;-1,5424;0,5168;0,1892;
14,678039;0,2460;1,4236;0,5063;2,0180;4,6780;0,9950;-1,5424;0,5168;0,1892;
14,699093;0,1918;1,4781;0,2323;2,0180;4,6780;0,9950;-1,5424;0,5168;0,1892;
14,700184;0,1918;1,4781;0,2323;2,0180;4,6780;0,9950;-0,4904;0,4888;0,0542;
14,700862;0,1918;1,4781;0,2323;2,0380;5,0310;-0,3530;-0,4904;0,4888;0,0542;
14,717746;0,1918;1,4781;0,2323;2,6160;4,9990;0,7940;-0,4904;0,4888;0,0542;
14,740405;0,1918;1,4781;0,2323;2,2290;4,7380;1,0700;-0,4904;0,4888;0,0542;
14,759197;0,1332;1,4530;0,3005;2,2290;4,7380;1,0700;-0,4904;0,4888;0,0542;
14,760056;0,1332;1,4530;0,3005;2,2290;4,7380;1,0700;0,1726;0,8128;0,1162;
14,760390;0,1332;1,4530;0,3005;1,5050;4,8150;0,2160;0,1726;0,8128;0,1162;
14,779603;0,1332;1,4530;0,3005;1,0630;5,2880;-0,2120;0,1726;0,8128;0,1162;
14,799895;0,1332;1,4530;0,3005;1,1580;5,2450;-0,2720;0,1726;0,8128;0,1162;
14,821041;0,0779;1,4717;0,1287;1,1580;5,2450;-0,2720;0,1726;0,8128;0,1162;
14,822319;0,0779;1,4717;0,1287;1,1580;5,2450;-0,2720;0,8036;0,1358;0,0772;
14,823010;0,0779;1,4717;0,1287;0,9540;4,9080;-1,1630;0,8036;0,1358;0,0772;
14,839775;0,0779;1,4717;0,1287;0,5930;5,0750;-1,8700;0,8036;0,1358;0,0772;
14,861641;0,0779;1,4717;0,1287;0,5780;5,1810;-1,2910;0,8036;0,1358;0,0772;
14,880492;0,0142;1,4703;0,2203;0,5780;5,1810;-1,2910;0,8036;0,1358;0,0772;
14,881945;0,0142;1,4703;0,2203;0,5780;5,1810;-1,2910;0,6816;0,1008;-0,0978;
14,882529;0,0142;1,4703;0,2203;0,3320;4,8020;0,1320;0,6816;0,1008;-0,0978;
14,902402;0,0142;1,4703;0,2203;-0,0410;4,1070;0,8280;0,6816;0,1008;-0,0978;
14,921850;0,0142;1,4703;0,2203;0,0820;3,2410;0,8400;0,6816;0,1008;-0,0978;
14,943594;0,0235;1,2242;0,2369;0,0820;3,2410;0,8400;0,6816;0,1008;-0,0978;
14,945309;0,0235;1,2242;0,2369;0,4570;2,2900;0,8630;0,6816;0,1008;-0,0978;
14,962344;0,0235;1,2242;0,2369;0,4570;2,2900;0,8630;1,4156;-0,1602;-0,0998;
14,963206;0,0235;1,2242;0,2369;0,7160;1,8040;0,7150;1,4156;-0,1602;-0,0998;
14,982484;0,0235;1,2242;0,2369;0,8160;1,0110;0,6650;1,4156;-0,1602;-0,0998;
15,005036;0,0918;1,0189;0,1646;0,8160;1,0110;0,6650;1,4156;-0,1602;-0,0998;
15,005549;0,0918;1,0189;0,1646;1,1860;0,1980;1,0290;1,4156;-0,1602;-0,0998;
15,024203;0,0918;1,0189;0,1646;1,1860;0,1980;1,0290;1,6726;-0,4722;-0,0808;
15,024801;0,0918;1,0189;0,1646;1,4990;-0,6590;1,0420;1,6726;-0,4722;-0,0808;
15,042818;0,0918;1,0189;0,1646;1,9920;-1,6290;0,8620;1,6726;-0,4722;-0,0808;
15,065068;0,1918;0,7655;0,0524;1,9920;-1,6290;0,8620;1,6726;-0,4722;-0,0808;
15,066683;0,1918;0,7655;0,0524;2,2290;-2,3020;0,8770;1,6726;-0,4722;-0,0808;
15,083234;0,1918;0,7655;0,0524;2,2290;-2,3020;0,8770;1,2496;-0,3112;-0,1578;
15,083756;0,1918;0,7655;0,0524;2,0000;-2,8720;0,9260;1,2496;-0,3112;-0,1578;
15,106350;0,1918;0,7655;0,0524;1,8380;-3,3290;1,2440;1,2496;-0,3112;-0,1578;
15,127140;0,1566;0,6022;0,0505;1,8380;-3,3290;1,2440;1,2496;-0,3112;-0,1578;
15,128106;0,1566;0,6022;0,0505;1,9640;-3,8370;1,5880;1,2496;-0,3112;-0,1578;
15,145294;0,1566;0,6022;0,0505;1,9640;-3,8370;1,5880;1,1256;-0,3662;-0,0748;
15,147007;0,1566;0,6022;0,0505;1,7980;-4,2990;1,4540;1,1256;-0,3662;-0,0748;
15,166004;0,1566;0,6022;0,0505;1,6850;-4,7830;1,4110;1,1256;-0,3662;-0,0748;
15,187039;0,1004;0,4583;-0,0315;1,6850;-4,7830;1,4110;1,1256;-0,3662;-0,0748;
15,188552;0,1004;0,4583;-0,0315;1,4730;-5,1570;1,4390;1,1256;-0,3662;-0,0748;
15,205344;0,1004;0,4583;-0,0315;1,7100;-5,5560;0,9990;1,1256;-0,3662;-0,0748;
15,227985;0,1004;0,4583;-0,0315;1,7100;-5,5560;0,9990;0,9286;-0,4132;0,2482;
15,229276;0,1004;0,4583;-0,0315;1,7190;-5,6420;-0,1540;0,9286;-0,4132;0,2482;
15,245837;0,0957;0,4380;-0,2884;1,7190;-5,6420;-0,1540;0,9286;-0,4132;0,2482;
15,246794;0,0957;0,4380;-0,2884;1,3280;-5,2490;-0,5810;0,9286;-0,4132;0,2482;
15,269028;0,0957;0,4380;-0,2884;1,2350;-5,2530;0,0790;0,9286;-0,4132;0,2482;
15,286997;0,0957;0,4380;-0,2884;1,2350;-5,2530;0,0790;0,0166;-0,4722;0,5152;
15,288219;0,0957;0,4380;-0,2884;1,4780;-5,3210;0,2800;0,0166;-0,4722;0,5152;
15,309882;0,1439;0,4570;-0,2204;1,4780;-5,3210;0,2800;0,0166;-0,4722;0,5152;
15,311279;0,1439;0,4570;-0,2204;1,5970;-5,0690;0,1250;0,0166;-0,4722;0,5152;
15,326551;0,1439;0,4570;-0,2204;1,3770;-4,1860;0,6620;0,0166;-0,4722;0,5152;
15,349512;0,1439;0,4570;-0,2204;1,3770;-4,1860;0,6620;-0,3034;-0,8992;0,4392;
15,350913;0,1439;0,4570;-0,2204;0,8800;-3,5770;1,5120;-0,3034;-0,8992;0,4392;
15,367679;0,0394;0,6484;-0,0826;0,8800;-3,5770;1,5120;-0,3034;-0,8992;0,4392;
15,368432;0,0394;0,6484;-0,0826;0,3850;-3,2330;1,2900;-0,3034;-0,8992;0,4392;
15,391469;0,0394;0,6484;-0,0826;0,4310;-2,5300;0,4350;-0,3034;-0,8992;0,4392;
15,409149;0,0394;0,6484;-0,0826;0,4310;-2,5300;0,4350;-0,3464;-1,1192;0,6642;
15,411046;0,0394;0,6484;-0,0826;0,9200;-1,6390;0,9370;-0,3464;-1,1192;0,6642;
15,430746;0,1483;0,8366;-0,0384;0,9200;-1,6390;0,9370;-0,3464;-1,1192;0,6642;
15,433099;0,1483;0,8366;-0,0384;1,2180;-1,4190;1,5940;-0,3464;-1,1192;0,6642;
15,449962;0,1483;0,8366;-0,0384;1,0140;-1,3640;1,0830;-0,3464;-1,1192;0,6642;
15,472667;0,1483;0,8366;-0,0384;0,8480;-0,7940;0,3590;-0,3464;-1,1192;0,6642;
15,491429;0,1114;0,9994;-0,1633;0,8480;-0,7940;0,3590;-0,3464;-1,1192;0,6642;
15,492621;0,1114;0,9994;-0,1633;0,8480;-0,7940;0,3590;-0,9184;-0,3832;0,4312;
15,493256;0,1114;0,9994;-0,1633;0,6240;0,1330;0,0320;-0,9184;-0,3832;0,4312;
15,512996;0,1114;0,9994;-0,1633;-0,3110;0,3020;0,5280;-0,9184;-0,3832;0,4312;
15,530716;0,1114;0,9994;-0,1633;-0,4180;0,4750;1,8440;-0,9184;-0,3832;0,4312;
15,553366;0,0478;1,0888;0,1770;-0,4180;0,4750;1,8440;-0,9184;-0,3832;0,4312;
15,554512;0,0478;1,0888;0,1770;-0,4180;0,4750;1,8440;-1,1884;-0,0702;0,2352;
15,555546;0,0478;1,0888;0,1770;-0,1600;0,9170;2,6070;-1,1884;-0,0702;0,2352;
15,570369;0,0478;1,0888;0,1770;-1,1150;1,1610;1,8760;-1,1884;-0,0702;0,2352;
15,593551;0,0478;1,0888;0,1770;-1,6670;0,7840;0,7380;-1,1884;-0,0702;0,2352;
15,611433;-0,0608;1,0681;-0,0403;-1,6670;0,7840;0,7380;-1,1884;-0,0702;0,2352;
15,613162;-0,0608;1,0681;-0,0403;-1,6670;0,7840;0,7380;-0,8584;-0,6552;0,2472;
15,614164;-0,0608;1,0681;-0,0403;-1,2950;0,6850;-0,0550;-0,8584;-0,6552;0,2472;
15,633730;-0,0608;1,0681;-0,0403;-1,1040;0,7380;0,2960;-0,8584;-0,6552;0,2472;
15,652453;-0,0608;1,0681;-0,0403;-2,1950;0,7390;0,4140;-0,8584;-0,6552;0,2472;
15,675172;-0,1419;1,1259;-0,0806;-2,1950;0,7390;0,4140;-0,8584;-0,6552;0,2472;
15,676262;-0,1419;1,1259;-0,0806;-2,1950;0,7390;0,4140;-0,8014;-1,5892;0,3462;
15,677414;-0,1419;1,1259;-0,0806;-2,2190;1,2610;-0,8890;-0,8014;-1,5892;0,3462;
15,692636;-0,1419;1,1259;-0,0806;-0,9010;1,7870;0,2000;-0,8014;-1,5892;0,3462;
15,716731;-0,1419;1,1259;-0,0806;-1,0100;1,8660;1,7950;-0,8014;-1,5892;0,3462;
15,733938;-0,1158;1,2249;0,2472;-1,0100;1,8660;1,7950;-0,8014;-1,5892;0,3462;
15,734574;-0,1158;1,2249;0,2472;-2,1300;2,2610;1,8210;-0,8014;-1,5892;0,3462;
15,756674;-0,1158;1,2249;0,2472;-2,1300;2,2610;1,8210;-0,6624;-0,2472;0,3232;
15,758059;-0,1158;1,2249;0,2472;-2,0030;2,3590;1,2230;-0,6624;-0,2472;0,3232;
15,774773;-0,1158;1,2249;0,2472;-1,6790;2,1020;-0,1310;-0,6624;-0,2472;0,3232;
15,797268;-0,0640;1,2249;-0,0349;-1,6790;2,1020;-0,1310;-0,6624;-0,2472;0,3232;
15,798437;-0,0640;1,2249;-0,0349;-1,8250;2,3070;-1,2330;-0,6624;-0,2472;0,3232;
15,814101;-0,0640;1,2249;-0,0349;-1,8250;2,3070;-1,2330;-0,5364;-0,0472;0,1482;
15,815528;-0,0640;1,2249;-0,0349;-1,7580;2,8800;-0,9770;-0,5364;-0,0472;0,1482;
15,837992;-0,0640;1,2249;-0,0349;-1,6280;3,0850;-0,7420;-0,5364;-0,0472;0,1482;
15,856020;-0,0060;1,2631;0,0913;-1,6280;3,0850;-0,7420;-0,5364;-0,0472;0,1482;
15,857589;-0,0060;1,2631;0,0913;-1,3220;2,7160;-0,3080;-0,5364;-0,0472;0,1482;
15,877701;-0,0060;1,2631;0,0913;-1,3220;2,7160;-0,3080;-0,3434;-0,4392;-0,1028;
15,879367;-0,0060;1,2631;0,0913;-1,2780;2,5340;0,2970;-0,3434;-0,4392;-0,1028;
15,896710;-0,0060;1,2631;0,0913;-1,3660;2,4170;0,4950;-0,3434;-0,4392;-0,1028;
15,919307;0,0315;1,2068;0,1551;-1,3660;2,4170;0,4950;-0,3434;-0,4392;-0,1028;
15,920603;0,0315;1,2068;0,1551;-0,9570;2,1880;0,1760;-0,3434;-0,4392;-0,1028;
15,935935;0,0315;1,2068;0,1551;-0,9570;2,1880;0,1760;0,0856;-0,1012;-0,0358;
15,936658;0,0315;1,2068;0,1551;-0,5490;1,7930;-0,5250;0,0856;-0,1012;-0,0358;
15,960130;0,0315;1,2068;0,1551;-0,4620;1,4080;-0,8330;0,0856;-0,1012;-0,0358;
15,978437;0,0771;1,0842;0,0703;-0,4620;1,4080;-0,8330;0,0856;-0,1012;-0,0358;
15,979835;0,0771;1,0842;0,0703;-0,4900;0,9800;-0,6020;0,0856;-0,1012;-0,0358;
15,999496;0,0771;1,0842;0,0703;-0,4200;0,8100;-0,3080;0,0856;-0,1012;-0,0358;
16,018333;0,0771;1,0842;0,0703;-0,4200;0,8100;-0,3080;0,1916;-0,3392;-0,1198;
16,019011;0,0771;1,0842;0,0703;-0,3770;0,5710;0,1440;0,1916;-0,3392;-0,1198;
16,040042;0,0801;1,0015;0,1581;-0,3770;0,5710;0,1440;0,1916;-0,3392;-0,1198;
16,041014;0,0801;1,0015;0,1581;-0,4190;0,1400;0,3920;0,1916;-0,3392;-0,1198;
16,059373;0,0801;1,0015;0,1581;-0,2330;-0,1940;-0,2870;0,1916;-0,3392;-0,1198;
16,082157;0,0801;1,0015;0,1581;-0,2330;-0,1940;-0,2870;0,2086;-0,1792;-0,0438;
16,083764;0,0801;1,0015;0,1581;0,1920;-0,3780;-0,9120;0,2086;-0,1792;-0,0438;
16,100171;0,1624;0,9717;0,0407;0,1920;-0,3780;-0,9120;0,2086;-0,1792;-0,0438;
16,101126;0,1624;0,9717;0,0407;0,4040;-0,1640;-0,5990;0,2086;-0,1792;-0,0438;
16,121574;0,1624;0,9717;0,0407;0,1680;-0,0270;0,2780;0,2086;-0,1792;-0,0438;
16,140582;0,1624;0,9717;0,0407;0,1680;-0,0270;0,2780;0,0556;-0,0922;-0,1058;
16,143107;0,1624;0,9717;0,0407;-0,2110;0,0000;0,6270;0,0556;-0,0922;-0,1058;
16,162228;0,0974;0,9854;0,1323;-0,2110;0,0000;0,6270;0,0556;-0,0922;-0,1058;
16,163812;0,0974;0,9854;0,1323;-0,1430;-0,0300;0,2310;0,0556;-0,0922;-0,1058;
16,181097;0,0974;0,9854;0,1323;-0,0500;-0,0340;-0,1080;0,0556;-0,0922;-0,1058;
16,203845;0,0974;0,9854;0,1323;-0,0500;-0,0340;-0,1080;0,0119;-0,0525;-0,0037;
16,205114;0,0974;0,9854;0,1323;-0,1440;-0,1050;-0,1190;0,0119;-0,0525;-0,0037;
16,220350;0,1067;0,9735;0,1077;-0,1440;-0,1050;-0,1190;0,0119;-0,0525;-0,0037;
16,220949;0,1067;0,9735;0,1077;-0,0340;-0,1600;0,0300;0,0119;-0,0525;-0,0037;
16,244652;0,1067;0,9735;0,1077;0,0770;-0,1340;-0,2060;0,0119;-0,0525;-0,0037;
16,262353;0,1067;0,9735;0,1077;0,0600;0,1080;-0,3020;0,0119;-0,0525;-0,0037;
16,285050;0,1021;1,0118;0,1169;0,0600;0,1080;-0,3020;0,0119;-0,0525;-0,0037;
16,286310;0,1021;1,0118;0,1169;0,0600;0,1080;-0,3020;-0,0801;-0,1375;-0,0237;
16,287219;0,1021;1,0118;0,1169;-0,0790;0,2180;0,1530;-0,0801;-0,1375;-0,0237;
16,301899;0,1021;1,0118;0,1169;-0,0600;0,0720;0,4390;-0,0801;-0,1375;-0,0237;
16,326335;0,1021;1,0118;0,1169;0,1060;0,0180;0,0230;-0,0801;-0,1375;-0,0237;
16,343929;0,1221;1,0071;0,0815;0,1060;0,0180;0,0230;-0,0801;-0,1375;-0,0237;
16,344862;0,1221;1,0071;0,0815;0,1060;0,0180;0,0230;-0,0281;-0,0695;-0,0377;
16,345439;0,1221;1,0071;0,0815;0,1020;0,1660;-0,2140;-0,0281;-0,0695;-0,0377;
16,365349;0,1221;1,0071;0,0815;-0,0590;0,1930;0,1600;-0,0281;-0,0695;-0,0377;
16,384146;0,1221;1,0071;0,0815;-0,0870;0,0420;0,0350;-0,0281;-0,0695;-0,0377;
16,407318;0,1046;0,9920;0,0791;-0,0870;0,0420;0,0350;-0,0281;-0,0695;-0,0377;
16,408754;0,1046;0,9920;0,0791;-0,0870;0,0420;0,0350;0,0269;-0,0455;-0,0127;
16,409486;0,1046;0,9920;0,0791;-0,0290;0,0120;-0,2360;0,0269;-0,0455;-0,0127;
16,424041;0,1046;0,9920;0,0791;-0,1000;0,0920;-0,0120;0,0269;-0,0455;-0,0127;
16,447567;0,1046;0,9920;0,0791;-0,1660;0,0370;0,1570;0,0269;-0,0455;-0,0127;
16,465548;0,0980;0,9940;0,0913;-0,1660;0,0370;0,1570;0,0269;-0,0455;-0,0127;
16,466317;0,0980;0,9940;0,0913;-0,1660;0,0370;0,1570;0,0149;-0,0825;-0,0047;
16,466886;0,0980;0,9940;0,0913;-0,0660;0,0340;-0,0970;0,0149;-0,0825;-0,0047;
16,487198;0,0980;0,9940;0,0913;0,0130;0,0060;-0,1250;0,0149;-0,0825;-0,0047;
16,507081;0,0980;0,9940;0,0913;-0,0370;-0,0050;0,1440;0,0149;-0,0825;-0,0047;
16,528721;0,1021;0,9930;0,1241;-0,0370;-0,0050;0,1440;0,0149;-0,0825;-0,0047;
16,529797;0,1021;0,9930;0,1241;-0,0220;0,0230;0,2060;0,0149;-0,0825;-0,0047;
16,546641;0,1021;0,9930;0,1241;-0,0220;0,0230;0,2060;-0,0001;-0,0625;-0,0107;
16,548019;0,1021;0,9930;0,1241;0,0930;0,0100;0,0790;-0,0001;-0,0625;-0,0107;
16,568657;0,1021;0,9930;0,1241;0,1140;-0,0300;-0,0780;-0,0001;-0,0625;-0,0107;
16,588461;0,1013;0,9940;0,1013;0,1140;-0,0300;-0,0780;-0,0001;-0,0625;-0,0107;
16,589902;0,1013;0,9940;0,1013;-0,0410;0,0370;-0,0270;-0,0001;-0,0625;-0,0107;
16,608844;0,1013;0,9940;0,1013;-0,0410;0,0370;-0,0270;-0,0191;0,0305;-0,0017;
16,609713;0,1013;0,9940;0,1013;-0,0360;0,0390;0,1570;-0,0191;0,0305;-0,0017;
16,628886;0,1013;0,9940;0,1013;0,0040;0,0380;-0,1070;-0,0191;0,0305;-0,0017;
16,650120;0,1092;0,9961;0,0913;0,0040;0,0380;-0,1070;-0,0191;0,0305;-0,0017;
16,651391;0,1092;0,9961;0,0913;0,0410;0,0510;-0,1290;-0,0191;0,0305;-0,0017;
16,668234;0,1092;0,9961;0,0913;0,0410;0,0510;-0,1290;-0,0201;0,0005;-0,0107;
16,668791;0,1092;0,9961;0,0913;0,0390;0,0540;0,1760;-0,0201;0,0005;-0,0107;
16,690756;0,1092;0,9961;0,0913;-0,0370;0,0820;0,1620;-0,0201;0,0005;-0,0107;
16,710231;0,1099;0,9984;0,1008;-0,0370;0,0820;0,1620;-0,0201;0,0005;-0,0107;
16,711477;0,1099;0,9984;0,1008;0,0540;0,0810;-0,0590;-0,0201;0,0005;-0,0107;
16,730423;0,1099;0,9984;0,1008;0,0540;0,0810;-0,0590;-0,0271;-0,0065;-0,0097;
16,731970;0,1099;0,9984;0,1008;0,1380;0,0540;-0,1540;-0,0271;-0,0065;-0,0097;
16,751206;0,1099;0,9984;0,1008;0,0920;0,0400;-0,1220;-0,0271;-0,0065;-0,0097;
16,772492;0,1036;0,9966;0,1248;0,0920;0,0400;-0,1220;-0,0271;-0,0065;-0,0097;
16,773875;0,1036;0,9966;0,1248;-0,0210;0,0690;0,1680;-0,0271;-0,0065;-0,0097;
16,792319;0,1036;0,9966;0,1248;-0,0530;0,0830;0,1040;-0,0271;-0,0065;-0,0097;
16,812760;0,1036;0,9966;0,1248;-0,0530;0,0830;0,1040;0,0109;-0,0185;-0,0047;
16,813985;0,1036;0,9966;0,1248;-0,0720;0,1200;-0,2280;0,0109;-0,0185;-0,0047;
16,832218;0,1016;1,0026;0,0903;-0,0720;0,1200;-0,2280;0,0109;-0,0185;-0,0047;
16,833436;0,1016;1,0026;0,0903;-0,0170;0,1190;-0,1480;0,0109;-0,0185;-0,0047;
16,852421;0,1016;1,0026;0,0903;0,0460;0,1610;0,0880;0,0109;-0,0185;-0,0047;
16,872496;0,1016;1,0026;0,0903;0,0460;0,1610;0,0880;-0,0111;-0,0005;-0,0147;
16,873862;0,1016;1,0026;0,0903;0,0830;0,1350;0,1060;-0,0111;-0,0005;-0,0147;
16,893074;0,1136;0,9994;0,1037;0,0830;0,1350;0,1060;-0,0111;-0,0005;-0,0147;
16,894697;0,1136;0,9994;0,1037;0,0810;0,0950;-0,0280;-0,0111;-0,0005;-0,0147;
16,913961;0,1136;0,9994;0,1037;0,0550;0,1620;-0,0510;-0,0111;-0,0005;-0,0147;
16,934442;0,1136;0,9994;0,1037;0,0550;0,1620;-0,0510;0,0149;-0,0165;-0,0367;
16,935231;0,1136;0,9994;0,1037;-0,1290;0,1190;0,0290;0,0149;-0,0165;-0,0367;
16,953812;0,0731;0,9961;0,1032;-0,1290;0,1190;0,0290;0,0149;-0,0165;-0,0367;
16,954639;0,0731;0,9961;0,1032;-0,2660;0,0480;-0,0180;0,0149;-0,0165;-0,0367;
16,974462;0,0731;0,9961;0,1032;-0,1220;0,0860;-0,1490;0,0149;-0,0165;-0,0367;
16,995094;0,0731;0,9961;0,1032;-0,1220;0,0860;-0,1490;-0,0101;-0,0345;-0,0007;
16,996523;0,0731;0,9961;0,1032;0,1710;0,0880;0,0260;-0,0101;-0,0345;-0,0007;
17,015086;0,1199;0,9954;0,1280;0,1710;0,0880;0,0260;-0,0101;-0,0345;-0,0007;
17,016490;0,1199;0,9954;0,1280;0,1720;0,0500;0,2270;-0,0101;-0,0345;-0,0007;
17,034822;0,1199;0,9954;0,1280;-0,0860;-0,0190;0,0370;-0,0101;-0,0345;-0,0007;
17,056770;0,1199;0,9954;0,1280;-0,1630;0,0310;-0,1880;-0,0101;-0,0345;-0,0007;
17,076316;0,0899;1,0008;0,1050;-0,1630;0,0310;-0,1880;-0,0101;-0,0345;-0,0007;
17,077067;0,0899;1,0008;0,1050;-0,1630;0,0310;-0,1880;-0,0181;-0,0095;0,0013;
17,077757;0,0899;1,0008;0,1050;-0,0870;0,0990;0,0130;-0,0181;-0,0095;0,0013;
17,097195;0,0899;1,0008;0,1050;-0,0310;0,1280;0,2640;-0,0181;-0,0095;0,0013;
17,117001;0,0899;1,0008;0,1050;0,0070;0,1020;0,1870;-0,0181;-0,0095;0,0013;
17,137608;0,1087;0,9893;0,0861;0,0070;0,1020;0,1870;-0,0181;-0,0095;0,0013;
17,138345;0,1087;0,9893;0,0861;0,0070;0,1020;0,1870;0,0479;-0,0105;-0,0017;
17,138844;0,1087;0,9893;0,0861;0,0930;-0,0210;-0,1830;0,0479;-0,0105;-0,0017;
17,155980;0,1087;0,9893;0,0861;0,0750;-0,0230;-0,2290;0,0479;-0,0105;-0,0017;
17,178039;0,1087;0,9893;0,0861;-0,0390;0,0440;-0,0030;0,0479;-0,0105;-0,0017;
17,198343;0,0882;0,9996;0,1040;-0,0390;0,0440;-0,0030;0,0479;-0,0105;-0,0017;
17,199229;0,0882;0,9996;0,1040;-0,0390;0,0440;-0,0030;-0,0001;-0,0105;-0,0087;
17,200593;0,0882;0,9996;0,1040;-0,0960;0,0840;0,0070;-0,0001;-0,0105;-0,0087;
17,217648;0,0882;0,9996;0,1040;-0,0120;0,1100;-0,0790;-0,0001;-0,0105;-0,0087;
17,238588;0,0882;0,9996;0,1040;0,1030;0,1240;-0,0080;-0,0001;-0,0105;-0,0087;
17,260106;0,0992;0,9957;0,1104;0,1030;0,1240;-0,0080;-0,0001;-0,0105;-0,0087;
17,262149;0,0992;0,9957;0,1104;0,1030;0,1240;-0,0080;-0,0101;-0,0085;-0,0217;
17,263151;0,0992;0,9957;0,1104;0,0110;0,0430;0,0800;-0,0101;-0,0085;-0,0217;
17,278522;0,0992;0,9957;0,1104;-0,0610;-0,0100;0,1350;-0,0101;-0,0085;-0,0217;
17,300272;0,0992;0,9957;0,1104;0,0570;0,1120;0,0790;-0,0101;-0,0085;-0,0217;
17,319573;0,1111;1,0031;0,1006;0,0570;0,1120;0,0790;-0,0101;-0,0085;-0,0217;
17,320769;0,1111;1,0031;0,1006;0,1170;0,1120;-0,0230;-0,0101;-0,0085;-0,0217;
17,341430;0,1111;1,0031;0,1006;0,1170;0,1120;-0,0230;-0,0111;-0,0045;-0,0307;
17,343082;0,1111;1,0031;0,1006;0,0000;0,0430;-0,0850;-0,0111;-0,0045;-0,0307;
17,360808;0,1111;1,0031;0,1006;-0,0950;0,0420;0,0290;-0,0111;-0,0045;-0,0307;
17,381667;0,0948;1,0003;0,1096;-0,0950;0,0420;0,0290;-0,0111;-0,0045;-0,0307;
17,383189;0,0948;1,0003;0,1096;-0,0110;0,0830;0,0500;-0,0111;-0,0045;-0,0307;
17,400894;0,0948;1,0003;0,1096;-0,0110;0,0830;0,0500;0,0059;-0,0135;-0,0037;
17,401468;0,0948;1,0003;0,1096;0,1530;0,0990;0,0740;0,0059;-0,0135;-0,0037;
17,421213;0,0948;1,0003;0,1096;0,0310;0,0310;0,0690;0,0059;-0,0135;-0,0037;
17,441792;0,0889;0,9908;0,0933;0,0310;0,0310;0,0690;0,0059;-0,0135;-0,0037;
17,442641;0,0889;0,9908;0,0933;-0,0820;-0,0110;-0,0980;0,0059;-0,0135;-0,0037;
17,462178;0,0889;0,9908;0,0933;-0,0820;-0,0110;-0,0980;0,0019;-0,0305;0,0223;
17,463073;0,0889;0,9908;0,0933;0,0470;0,0420;-0,1510;0,0019;-0,0305;0,0223;
17,482767;0,0889;0,9908;0,0933;0,2670;0,0710;-0,0120;0,0019;-0,0305;0,0223;
17,503185;0,1288;0,9984;0,1094;0,2670;0,0710;-0,0120;0,0019;-0,0305;0,0223;
17,503782;0,1288;0,9984;0,1094;0,2620;0,0740;0,0650;0,0019;-0,0305;0,0223;
17,522220;0,1288;0,9984;0,1094;0,2620;0,0740;0,0650;-0,0221;0,0015;-0,0327;
17,524350;0,1288;0,9984;0,1094;0,0590;-0,0470;0,1080;-0,0221;0,0015;-0,0327;
17,544390;0,1288;0,9984;0,1094;-0,0790;-0,1290;0,0700;-0,0221;0,0015;-0,0327;
17,563528;0,0994;0,9871;0,1036;-0,0790;-0,1290;0,0700;-0,0221;0,0015;-0,0327;
17,564282;0,0994;0,9871;0,1036;-0,0110;-0,0330;-0,0110;-0,0221;0,0015;-0,0327;
17,583982;0,0994;0,9871;0,1036;0,1530;0,1160;-0,0360;-0,0221;0,0015;-0,0327;
17,604263;0,0994;0,9871;0,1036;0,1530;0,1160;-0,0360;-0,0361;-0,0775;-0,0257;
17,605784;0,0994;0,9871;0,1036;0,0820;0,1040;0,0130;-0,0361;-0,0775;-0,0257;
17,624396;0,0933;0,9881;0,1069;0,0820;0,1040;0,0130;-0,0361;-0,0775;-0,0257;
17,626066;0,0933;0,9881;0,1069;-0,0690;-0,0320;0,0040;-0,0361;-0,0775;-0,0257;
17,644886;0,0933;0,9881;0,1069;0,0010;0,1170;-0,0400;-0,0361;-0,0775;-0,0257;
17,666454;0,0933;0,9881;0,1069;0,0010;0,1170;-0,0400;-0,0721;-0,0935;-0,0247;
17,668381;0,0933;0,9881;0,1069;0,0430;0,3100;0,1310;-0,0721;-0,0935;-0,0247;
17,685120;0,0931;1,0233;0,1245;0,0430;0,3100;0,1310;-0,0721;-0,0935;-0,0247;
17,685985;0,0931;1,0233;0,1245;-0,0670;0,3240;0,1440;-0,0721;-0,0935;-0,0247;
17,705762;0,0931;1,0233;0,1245;-0,0460;0,3210;-0,1490;-0,0721;-0,0935;-0,0247;
17,727183;0,0931;1,0233;0,1245;-0,0460;0,3210;-0,1490;0,0169;-0,0585;0,0013;
17,728490;0,0931;1,0233;0,1245;0,0350;0,4530;-0,3550;0,0169;-0,0585;0,0013;
17,746553;0,1158;1,0646;0,0793;0,0350;0,4530;-0,3550;0,0169;-0,0585;0,0013;
17,748271;0,1158;1,0646;0,0793;0,1620;0,7100;-0,2090;0,0169;-0,0585;0,0013;
17,766816;0,1158;1,0646;0,0793;0,0950;1,2930;-0,2610;0,0169;-0,0585;0,0013;
17,788074;0,1158;1,0646;0,0793;0,0950;1,2930;-0,2610;0,0179;-0,2325;0,0133;
17,789539;0,1158;1,0646;0,0793;0,0930;2,2460;-0,7740;0,0179;-0,2325;0,0133;
17,807485;0,1214;1,3193;-0,0384;0,0930;2,2460;-0,7740;0,0179;-0,2325;0,0133;
17,809367;0,1214;1,3193;-0,0384;0,2060;3,2130;-1,3120;0,0179;-0,2325;0,0133;
17,829175;0,1214;1,3193;-0,0384;0,4830;4,0070;-1,3240;0,0179;-0,2325;0,0133;
17,846481;0,1214;1,3193;-0,0384;0,4200;4,5040;-1,2840;0,0179;-0,2325;0,0133;
17,870273;0,1607;1,4544;-0,0119;0,4200;4,5040;-1,2840;0,0179;-0,2325;0,0133;
17,872029;0,1607;1,4544;-0,0119;0,4200;4,5040;-1,2840;-0,3441;-0,3615;0,0563;
17,874383;0,1607;1,4544;-0,0119;0,5240;4,5530;-1,1660;-0,3441;-0,3615;0,0563;
17,887809;0,1607;1,4544;-0,0119;0,8890;4,6840;-0,7480;-0,3441;-0,3615;0,0563;
17,910887;0,1607;1,4544;-0,0119;0,9320;4,9490;0,1010;-0,3441;-0,3615;0,0563;
17,928635;0,2116;1,4918;0,2215;0,9320;4,9490;0,1010;-0,3441;-0,3615;0,0563;
17,930769;0,2116;1,4918;0,2215;0,9320;4,9490;0,1010;-0,1891;-0,9305;-0,1627;
17,931847;0,2116;1,4918;0,2215;1,0010;4,9390;0,9730;-0,1891;-0,9305;-0,1627;
17,950177;0,2116;1,4918;0,2215;0,8460;4,5000;1,5120;-0,1891;-0,9305;-0,1627;
17,968697;0,2116;1,4918;0,2215;0,1540;3,9420;1,9490;-0,1891;-0,9305;-0,1627;
17,992966;0,0482;1,3750;0,3846;0,1540;3,9420;1,9490;-0,1891;-0,9305;-0,1627;
17,994565;0,0482;1,3750;0,3846;0,1540;3,9420;1,9490;0,8079;-0,6245;-0,2707;
17,996163;0,0482;1,3750;0,3846;-0,4890;3,7600;2,7740;0,8079;-0,6245;-0,2707;
18,009063;0,0482;1,3750;0,3846;-0,8680;2,7300;4,3100;0,8079;-0,6245;-0,2707;
18,033003;0,0482;1,3750;0,3846;-0,8020;1,5800;4,1380;0,8079;-0,6245;-0,2707;
18,051201;0,0093;1,0984;0,1952;-0,8020;1,5800;4,1380;0,8079;-0,6245;-0,2707;
18,052166;0,0093;1,0984;0,1952;-0,8020;1,5800;4,1380;2,2999;-0,2005;0,0463;
18,052755;0,0093;1,0984;0,1952;-0,8600;0,9980;1,8730;2,2999;-0,2005;0,0463;
18,072362;0,0093;1,0984;0,1952;-0,8100;-0,1220;0,1740;2,2999;-0,2005;0,0463;
18,090831;0,0093;1,0984;0,1952;-0,8680;-1,4200;-0,2130;2,2999;-0,2005;0,0463;
18,113463;-0,0384;0,7535;-0,1198;-0,8680;-1,4200;-0,2130;2,2999;-0,2005;0,0463;
18,115242;-0,0384;0,7535;-0,1198;-1,2320;-2,3190;-0,0280;2,2999;-0,2005;0,0463;
18,130853;-0,0384;0,7535;-0,1198;-1,2320;-2,3190;-0,0280;1,1249;-0,3475;-0,4377;
18,132321;-0,0384;0,7535;-0,1198;-1,6740;-3,0440;0,8630;1,1249;-0,3475;-0,4377;
18,154206;-0,0384;0,7535;-0,1198;-1,8370;-3,5700;2,3650;1,1249;-0,3475;-0,4377;
18,171263;-0,1146;0,5523;0,1441;-1,8370;-3,5700;2,3650;1,1249;-0,3475;-0,4377;
18,172770;-0,1146;0,5523;0,1441;-1,6660;-4,2290;3,1320;1,1249;-0,3475;-0,4377;
18,194786;-0,1146;0,5523;0,1441;-1,6660;-4,2290;3,1320;0,9659;0,2155;-0,6017;
18,196295;-0,1146;0,5523;0,1441;-1,9320;-5,3590;2,9180;0,9659;0,2155;-0,6017;
18,212078;-0,1146;0,5523;0,1441;-2,2360;-5,9230;1,6590;0,9659;0,2155;-0,6017;
18,235449;-0,2167;0,3864;-0,1848;-2,2360;-5,9230;1,6590;0,9659;0,2155;-0,6017;
18,237118;-0,2167;0,3864;-0,1848;-2,3930;-5,7530;0,4570;0,9659;0,2155;-0,6017;
18,252709;-0,2167;0,3864;-0,1848;-2,3930;-5,7530;0,4570;0,4249;0,7655;-0,3137;
18,253879;-0,2167;0,3864;-0,1848;-2,2200;-5,4950;0,4180;0,4249;0,7655;-0,3137;
18,276992;-0,2167;0,3864;-0,1848;-2,1080;-5,8730;1,3440;0,4249;0,7655;-0,3137;
18,294076;-0,1605;0,3239;-0,0836;-2,1080;-5,8730;1,3440;0,4249;0,7655;-0,3137;
18,295011;-0,1605;0,3239;-0,0836;-1,7920;-6,3070;1,6780;0,4249;0,7655;-0,3137;
18,316999;-0,1605;0,3239;-0,0836;-1,7920;-6,3070;1,6780;0,1459;1,1285;-0,3217;
18,318521;-0,1605;0,3239;-0,0836;-1,5480;-6,4280;0,9330;0,1459;1,1285;-0,3217;
18,335466;-0,1605;0,3239;-0,0836;-1,6780;-6,3290;-0,4140;0,1459;1,1285;-0,3217;
18,357579;-0,1754;0,3673;-0,3169;-1,6780;-6,3290;-0,4140;0,1459;1,1285;-0,3217;
18,359274;-0,1754;0,3673;-0,3169;-1,9170;-5,8850;-0,6100;0,1459;1,1285;-0,3217;
18,374863;-0,1754;0,3673;-0,3169;-1,7110;-5,3690;0,9030;0,1459;1,1285;-0,3217;
18,398696;-0,1754;0,3673;-0,3169;-1,7110;-5,3690;0,9030;-1,0731;1,0605;-0,3507;
18,400568;-0,1754;0,3673;-0,3169;-1,4570;-5,0500;2,2490;-1,0731;1,0605;-0,3507;
18,415273;-0,1728;0,5220;0,0966;-1,4570;-5,0500;2,2490;-1,0731;1,0605;-0,3507;
18,415805;-0,1728;0,5220;0,0966;-1,8270;-4,5060;2,8690;-1,0731;1,0605;-0,3507;
18,439036;-0,1728;0,5220;0,0966;-2,0290;-3,7890;2,6050;-1,0731;1,0605;-0,3507;
18,457564;-0,1728;0,5220;0,0966;-2,0290;-3,7890;2,6050;-0,8631;1,5285;-0,0997;
18,459238;-0,1728;0,5220;0,0966;-0,0880;-3,0680;1,6050;-0,8631;1,5285;-0,0997;
18,478452;0,0485;0,7606;-0,0904;-0,0880;-3,0680;1,6050;-0,8631;1,5285;-0,0997;
18,480396;0,0485;0,7606;-0,0904;0,2740;-2,2520;0,5240;-0,8631;1,5285;-0,0997;
18,497282;0,0485;0,7606;-0,0904;-0,8190;-0,7400;0,4600;-0,8631;1,5285;-0,0997;
18,519630;0,0485;0,7606;-0,0904;-0,8190;-0,7400;0,4600;-1,1711;1,1735;-0,1747;
18,520410;0,0485;0,7606;-0,0904;-0,2030;0,0640;2,1540;-1,1711;1,1735;-0,1747;
18,537309;0,1109;0,9891;0,3245;-0,2030;0,0640;2,1540;-1,1711;1,1735;-0,1747;
18,538577;0,1109;0,9891;0,3245;0,9460;-0,0920;3,9280;-1,1711;1,1735;-0,1747;
18,560495;0,1109;0,9891;0,3245;-0,1280;0,3150;2,9380;-1,1711;1,1735;-0,1747;
18,578567;0,1109;0,9891;0,3245;-0,1280;0,3150;2,9380;-0,9371;1,3375;-0,1527;
18,580376;0,1109;0,9891;0,3245;-1,4490;1,5320;1,1990;-0,9371;1,3375;-0,1527;
18,600046;-0,1351;1,2019;0,0444;-1,4490;1,5320;1,1990;-0,9371;1,3375;-0,1527;
18,601289;-0,1351;1,2019;0,0444;-1,3490;1,9630;0,6030;-0,9371;1,3375;-0,1527;
18,619834;-0,1351;1,2019;0,0444;0,3570;1,5110;0,9420;-0,9371;1,3375;-0,1527;
18,642241;-0,1351;1,2019;0,0444;0,8760;1,6500;1,4260;-0,9371;1,3375;-0,1527;
18,659762;0,0671;1,1956;0,2861;0,8760;1,6500;1,4260;-0,9371;1,3375;-0,1527;
18,660858;0,0671;1,1956;0,2861;0,8760;1,6500;1,4260;-1,2121;0,7105;0,1463;
18,661712;0,0671;1,1956;0,2861;0,5820;1,9170;2,3330;-1,2121;0,7105;0,1463;
18,681522;0,0671;1,1956;0,2861;0,9900;2,2450;3,0280;-1,2121;0,7105;0,1463;
18,700229;0,0671;1,1956;0,2861;2,0210;2,4760;1,4320;-1,2121;0,7105;0,1463;
18,723460;0,2427;1,2983;0,0402;2,0210;2,4760;1,4320;-1,2121;0,7105;0,1463;
18,725151;0,2427;1,2983;0,0402;2,0210;2,4760;1,4320;-0,6261;1,0035;0,1683;
18,726109;0,2427;1,2983;0,0402;2,1880;2,9650;-0,5970;-0,6261;1,0035;0,1683;
18,742618;0,2427;1,2983;0,0402;1,5800;3,1180;-0,7530;-0,6261;1,0035;0,1683;
18,763629;0,2427;1,2983;0,0402;1,9580;2,9520;0,4950;-0,6261;1,0035;0,1683;
18,781815;0,3238;1,3322;0,2946;1,9580;2,9520;0,4950;-0,6261;1,0035;0,1683;
18,782782;0,3238;1,3322;0,2946;1,9580;2,9520;0,4950;-0,8501;0,6955;0,1233;
18,783288;0,3238;1,3322;0,2946;2,9340;3,3620;1,3540;-0,8501;0,6955;0,1233;
18,803017;0,3238;1,3322;0,2946;2,6520;3,2790;0,8160;-0,8501;0,6955;0,1233;
18,822488;0,3238;1,3322;0,2946;2,0810;3,2480;0,1670;-0,8501;0,6955;0,1233;
18,845999;0,2847;1,3060;0,2360;2,0810;3,2480;0,1670;-0,8501;0,6955;0,1233;
18,847659;0,2847;1,3060;0,2360;2,0810;3,2480;0,1670;-0,3551;0,9725;0,3133;
18,848621;0,2847;1,3060;0,2360;2,5370;3,1740;0,3860;-0,3551;0,9725;0,3133;
18,861961;0,2847;1,3060;0,2360;2,9680;3,5160;-0,2710;-0,3551;0,9725;0,3133;
18,885503;0,2847;1,3060;0,2360;2,3470;4,0190;-1,5160;-0,3551;0,9725;0,3133;
18,903560;0,1779;1,4268;0,1318;2,3470;4,0190;-1,5160;-0,3551;0,9725;0,3133;
18,904549;0,1779;1,4268;0,1318;1,4880;4,4020;-0,8390;-0,3551;0,9725;0,3133;
18,925478;0,1779;1,4268;0,1318;1,4880;4,4020;-0,8390;-0,1611;0,7025;0,2323;
18,926067;0,1779;1,4268;0,1318;1,1240;4,8340;0,4120;-0,1611;0,7025;0,2323;
18,944020;0,1779;1,4268;0,1318;1,0460;4,9500;-0,0160;-0,1611;0,7025;0,2323;
18,966521;0,1167;1,5059;0,0488;1,0460;4,9500;-0,0160;-0,1611;0,7025;0,2323;
18,967538;0,1167;1,5059;0,0488;0,7880;5,1640;-1,5600;-0,1611;0,7025;0,2323;
18,984662;0,1167;1,5059;0,0488;0,7880;5,1640;-1,5600;0,4769;-0,1295;0,2873;
18,985701;0,1167;1,5059;0,0488;0,9430;5,3240;-1,7920;0,4769;-0,1295;0,2873;
19,006292;0,1167;1,5059;0,0488;1,1730;5,2660;-1,2050;0,4769;-0,1295;0,2873;
19,025399;0,1568;1,4820;0,1272;1,1730;5,2660;-1,2050;0,4769;-0,1295;0,2873;
19,026577;0,1568;1,4820;0,1272;1,0270;4,8810;-0,5040;0,4769;-0,1295;0,2873;
19,046819;0,1568;1,4820;0,1272;1,0270;4,8810;-0,5040;0,6559;0,5555;0,1783;
19,047941;0,1568;1,4820;0,1272;0,5710;4,0870;0,0530;0,6559;0,5555;0,1783;
19,066075;0,1568;1,4820;0,1272;0,4430;3,3720;0,2830;0,6559;0,5555;0,1783;
19,088706;0,1444;1,3085;0,1218;0,4430;3,3720;0,2830;0,6559;0,5555;0,1783;
19,090047;0,1444;1,3085;0,1218;0,8480;3,1160;-0,1460;0,6559;0,5555;0,1783;
19,106280;0,1444;1,3085;0,1218;0,8480;3,1160;-0,1460;0,8599;-0,0455;-0,0987;
19,107648;0,1444;1,3085;0,1218;1,2390;2,7660;-0,7390;0,8599;-0,0455;-0,0987;
19,128829;0,1444;1,3085;0,1218;1,3000;1,6440;-0,8330;0,8599;-0,0455;-0,0987;
19,147384;0,1791;1,0548;0,0940;1,3000;1,6440;-0,8330;0,8599;-0,0455;-0,0987;
19,148940;0,1791;1,0548;0,0940;1,2450;0,5670;0,0550;0,8599;-0,0455;-0,0987;
19,169002;0,1791;1,0548;0,0940;1,1970;-0,3830;1,3110;0,8599;-0,0455;-0,0987;
19,188975;0,1791;1,0548;0,0940;1,1970;-0,3830;1,3110;0,5509;0,0575;-0,3807;
19,190608;0,1791;1,0548;0,0940;1,1210;-1,2240;1,7160;0,5509;0,0575;-0,3807;
19,208979;0,1324;0,8671;0,2226;1,1210;-1,2240;1,7160;0,5509;0,0575;-0,3807;
19,210504;0,1324;0,8671;0,2226;1,0000;-1,3030;1,6720;0,5509;0,0575;-0,3807;
19,229696;0,1324;0,8671;0,2226;1,2400;-1,3400;1,8640;0,5509;0,0575;-0,3807;
19,250454;0,1324;0,8671;0,2226;1,2400;-1,3400;1,8640;1,4729;-0,0795;-0,2517;
19,252037;0,1324;0,8671;0,2226;1,7890;-1,8500;1,9020;1,4729;-0,0795;-0,2517;
19,268903;0,2099;0,7677;0,0886;1,7890;-1,8500;1,9020;1,4729;-0,0795;-0,2517;
19,269403;0,2099;0,7677;0,0886;1,9170;-2,2830;1,1410;1,4729;-0,0795;-0,2517;
19,291409;0,2099;0,7677;0,0886;1,6600;-2,6910;0,3160;1,4729;-0,0795;-0,2517;
19,311879;0,2099;0,7677;0,0886;1,6600;-2,6910;0,3160;1,4089;-0,1255;-0,2517;
19,313263;0,2099;0,7677;0,0886;1,1800;-2,9820;0,2960;1,4089;-0,1255;-0,2517;
19,332391;0,1058;0,6799;-0,0626;1,1800;-2,9820;0,2960;1,4089;-0,1255;-0,2517;
19,333612;0,1058;0,6799;-0,0626;1,0750;-3,0760;0,5570;1,4089;-0,1255;-0,2517;
19,351251;0,1058;0,6799;-0,0626;1,4030;-3,1490;0,3320;1,4089;-0,1255;-0,2517;
